mac_timestamp,esp32_ms,ax,ay,az,gx,gy,gz
1778267518.2716932,1381729,-4.39,3.03,6.89,-0.18,24.55,-18.53
1778267518.3041084,1381751,-4.56,2.92,6.88,2.15,39.19,-21.02
1778267518.3158464,1381773,-4.46,3.09,6.80,3.97,61.28,-29.58
1778267518.3467822,1381795,-4.36,3.14,6.83,-0.32,82.44,-36.89
1778267518.3603458,1381817,-4.26,3.09,6.45,-2.90,108.13,-43.33
1778267518.39149,1381839,-4.35,3.96,6.21,-8.60,153.40,-63.02
1778267518.4053895,1381861,-4.50,4.16,6.77,-33.20,210.99,-102.69
1778267518.4211223,1381883,-4.78,3.91,7.11,-57.69,250.13,-148.88
1778267518.4506507,1381905,-7.45,7.07,7.22,-138.02,250.13,-247.57
1778267518.4662108,1381927,-16.76,2.86,11.39,-162.63,250.13,-250.14
1778267518.495617,1381949,-19.62,4.40,8.96,-162.62,250.13,-250.14
1778267518.5109391,1381971,-19.62,7.08,13.62,-140.68,250.13,-250.14
1778267518.5414155,1381993,-14.33,14.02,15.08,-136.95,162.47,-250.14
1778267518.571949,1382015,7.82,-1.58,16.97,-46.02,55.94,-237.27
1778267518.5852447,1382037,-8.55,9.96,6.19,98.27,-21.66,-40.79
1778267518.6015074,1382059,-5.56,11.14,7.17,154.92,-141.10,93.02
1778267518.6321318,1382081,-2.45,7.10,4.66,115.97,-193.10,137.25
1778267518.6464918,1382103,-1.37,4.09,2.39,94.47,-212.03,150.73
1778267518.676153,1382125,-0.10,2.15,1.18,104.07,-199.15,151.37
1778267518.6908417,1382147,-2.35,2.50,3.87,146.24,-177.13,163.90
1778267518.7212753,1382169,-5.57,4.15,5.96,160.53,-187.51,187.52
1778267518.737115,1382191,-7.13,3.84,6.48,158.72,-203.06,202.37
1778267518.7504656,1382213,-8.98,3.13,7.48,186.31,-205.28,214.01
1778267518.7813008,1382235,-10.79,3.02,8.91,217.40,-195.50,224.52
1778267518.7965317,1382257,-14.25,3.14,10.86,247.69,-186.31,226.17
1778267518.8259368,1382279,-18.70,4.71,10.71,250.13,-164.92,243.63
1778267518.8410609,1382301,-19.62,3.10,9.75,221.93,-119.37,250.13
1778267518.871374,1382323,-19.62,-3.36,8.13,206.52,-72.45,250.13
1778267518.8864024,1382345,-19.62,-10.60,5.14,239.69,-8.27,243.31
1778267518.9165268,1382367,-19.62,-9.93,0.45,187.07,31.27,221.74
1778267518.9309492,1382389,-19.62,-19.62,-1.37,125.59,99.67,167.23
1778267518.9614613,1382411,-14.97,-14.94,-2.29,-8.61,104.29,-8.04
1778267518.991454,1382433,-11.73,18.95,5.41,-250.14,60.13,-250.14
1778267519.0066419,1382455,-12.00,-19.62,19.62,-205.87,34.02,-246.98
1778267519.0212297,1382477,-15.27,6.52,15.58,-218.05,-50.13,-154.89
1778267519.0516477,1382499,-8.10,6.64,13.77,-168.11,-33.34,-53.24
1778267519.065714,1382521,-5.73,5.36,6.40,-85.06,-31.90,-34.50
1778267519.0810626,1382543,-4.85,4.37,8.61,-110.40,-44.37,-35.81
1778267519.1116877,1382565,-4.72,3.15,8.52,-65.76,-27.77,-24.83
1778267519.126094,1382587,-4.72,2.67,7.70,-24.12,-10.97,-9.38
1778267519.1559627,1382609,-4.45,3.43,6.87,-11.85,-1.54,-2.73
1778267519.1712854,1382631,-4.41,3.72,6.51,-9.27,1.81,-2.90
1778267519.2015717,1382653,-4.21,3.56,6.77,-7.44,3.76,-3.05
1778267519.2156978,1382675,-4.28,3.54,6.62,-7.60,6.65,-4.93
1778267519.2469652,1382697,-4.59,3.61,6.67,-10.00,4.92,-8.08
1778267519.2614472,1382719,-4.37,3.36,6.61,-7.97,4.38,-10.62
1778267519.2905898,1382741,-4.38,3.38,7.02,-6.99,3.14,-12.09
1778267519.3056726,1382763,-4.44,3.46,6.81,-8.12,2.92,-12.64
1778267519.3372028,1382785,-4.49,3.28,6.72,-6.83,4.41,-15.87
1778267519.352737,1382807,-4.57,3.48,6.64,-6.37,3.64,-19.39
1778267519.381178,1382829,-4.60,3.13,6.74,-7.11,5.68,-21.20
1778267519.395964,1382851,-5.21,3.49,7.53,-4.42,11.71,-19.40
1778267519.4111645,1382873,-4.46,2.97,6.98,-3.61,17.09,-19.64
1778267519.4416919,1382895,-4.02,2.87,6.89,-3.67,26.99,-17.98
1778267519.4858267,1382917,-4.28,3.30,6.87,0.11,41.94,-21.22
1778267519.4874222,1382939,-4.39,3.05,7.01,2.13,64.31,-29.60
1778267519.5470972,1382961,-4.35,3.36,7.10,0.94,88.62,-37.24
1778267519.549126,1382983,-4.23,3.31,7.06,-16.72,107.49,-44.01
1778267519.5508144,1383005,-4.52,3.24,6.34,-5.72,158.24,-65.05
1778267519.606154,1383027,-5.02,4.39,6.36,-25.81,211.88,-96.36
1778267519.6077983,1383049,-4.31,3.68,6.13,-39.58,250.13,-142.18
1778267519.6664488,1383071,-6.82,8.15,3.97,-120.08,250.13,-225.73
1778267519.6688187,1383093,-15.17,4.70,9.35,-168.03,250.13,-250.14
1778267519.6698513,1383115,-19.62,2.88,8.16,-148.69,250.13,-250.14
1778267519.726084,1383137,-19.62,5.02,12.10,-133.45,250.13,-250.14
1778267519.727423,1383159,-18.75,13.14,14.88,-112.83,206.98,-250.14
1778267519.7283995,1383181,-3.35,14.79,15.45,-77.90,121.50,-197.13
1778267519.7867513,1383203,-17.83,9.12,19.62,-11.06,15.59,-71.40
1778267519.7881503,1383225,-6.26,9.86,8.65,113.15,-131.51,93.03
1778267519.789192,1383247,-3.03,6.19,4.80,92.54,-196.61,134.05
1778267519.847051,1383269,-2.48,3.61,2.41,78.75,-224.07,137.37
1778267519.8488343,1383291,-2.39,2.48,1.58,94.02,-230.65,140.06
1778267519.9063485,1383313,-2.16,2.56,1.47,114.16,-215.14,144.50
1778267519.9079132,1383335,-4.87,4.09,3.39,138.13,-200.21,165.70
1778267519.9086843,1383357,-7.88,5.31,5.28,145.08,-208.98,198.79
1778267519.9681208,1383379,-9.89,5.10,6.27,149.47,-221.67,228.15
1778267519.9698038,1383401,-10.78,4.57,5.95,167.69,-220.76,250.13
1778267519.9708726,1383423,-12.49,5.94,7.56,178.15,-199.21,250.13
1778267520.0272236,1383445,-16.18,7.14,9.83,179.98,-174.36,250.13
1778267520.0286794,1383467,-19.62,1.88,10.57,199.66,-144.79,250.13
1778267520.0298848,1383489,-19.62,-0.45,11.31,229.71,-103.65,250.13
1778267520.0876567,1383511,-19.62,-7.66,9.62,236.86,-93.36,249.44
1778267520.0889914,1383533,-19.62,-18.40,0.48,250.13,-45.71,204.15
1778267520.146892,1383555,-19.62,-19.62,-2.02,250.13,116.71,178.34
1778267520.148212,1383577,-0.16,-0.73,-5.81,41.97,131.74,-14.11
1778267520.149474,1383599,-14.99,19.62,3.12,-250.14,46.46,-250.14
1778267520.2064273,1383621,-18.99,-8.56,16.28,-250.14,19.66,-217.01
1778267520.266113,1383643,-12.86,2.95,16.94,-207.41,-83.71,-160.01
1778267520.2678423,1383665,-5.56,-3.05,11.20,-140.47,-42.17,-53.84
1778267520.2687528,1383687,-6.35,7.43,4.57,-108.18,-39.69,-41.53
1778267520.270313,1383709,-4.92,3.03,7.74,-95.31,-37.40,-39.22
1778267520.2711496,1383731,-4.70,1.73,8.73,-55.74,-27.19,-23.44
1778267520.3264577,1383753,-4.45,4.09,6.73,-14.79,-5.28,-5.18
1778267520.3278992,1383775,-4.28,3.52,6.83,-8.01,1.17,-1.94
1778267520.386196,1383797,-4.27,3.51,6.76,-5.90,4.27,-3.41
1778267520.3880177,1383819,-4.20,3.53,6.72,-5.15,6.24,-4.05
1778267520.3887825,1383841,-4.31,4.01,6.39,-6.31,6.61,-7.59
1778267520.4462316,1383863,-4.54,3.72,6.62,-10.36,3.21,-13.99
1778267520.447602,1383885,-4.68,3.59,6.77,-9.83,0.90,-18.15
1778267520.4485092,1383907,-4.45,3.54,6.59,-10.43,1.76,-21.54
1778267520.5061526,1383929,-4.62,3.16,6.69,-10.26,4.76,-22.30
1778267520.507519,1383951,-4.19,2.78,6.69,-9.06,10.22,-21.48
1778267520.5659575,1383973,-4.77,3.12,6.78,-4.32,16.02,-19.30
1778267520.5678763,1383995,-4.71,3.17,7.11,-2.18,21.83,-17.44
1778267520.5688837,1384017,-4.69,3.14,6.91,-2.33,29.48,-19.65
1778267520.6261296,1384039,-4.55,3.13,6.70,-3.55,40.85,-22.14
1778267520.687129,1384061,-4.50,2.87,6.77,-3.66,52.12,-24.76
1778267520.6885486,1384083,-4.69,2.98,6.75,-0.82,67.66,-27.73
1778267520.6895688,1384105,-4.76,2.83,6.61,-1.98,89.46,-36.23
1778267520.6905618,1384127,-4.60,2.26,6.66,-1.09,118.45,-39.98
1778267520.6912518,1384149,-4.85,3.62,6.21,-2.44,159.98,-55.73
1778267520.7461517,1384171,-4.85,4.88,5.17,-23.08,215.38,-98.53
1778267520.7473116,1384193,-4.34,4.35,5.94,-56.68,250.13,-158.68
1778267520.8062859,1384215,-8.66,7.90,5.25,-141.04,250.13,-250.14
1778267520.8078232,1384237,-17.62,3.57,10.49,-186.30,250.13,-250.14
1778267520.8089442,1384259,-19.62,4.46,10.25,-176.21,250.13,-250.14
1778267520.8662608,1384281,-19.62,8.76,14.94,-151.96,239.55,-250.14
1778267520.8677473,1384303,-15.90,16.84,19.62,-116.33,147.46,-236.77
1778267520.868901,1384325,-2.32,10.59,-19.62,-44.20,76.66,-139.30
1778267520.9262154,1384347,-1.44,10.28,15.21,87.24,-83.90,22.52
1778267520.9274926,1384369,-0.31,8.22,2.82,85.24,-124.83,88.32
1778267520.9864318,1384391,0.30,5.05,2.61,68.93,-150.52,90.63
1778267520.9885855,1384413,-0.71,3.15,3.40,81.65,-164.15,101.29
1778267520.9898798,1384435,-1.34,3.44,3.54,121.90,-168.86,128.56
1778267521.046147,1384457,-3.63,4.49,4.70,146.01,-174.66,160.95
1778267521.1061518,1384479,-6.05,4.70,6.02,142.38,-197.17,191.26
1778267521.1077158,1384501,-7.41,3.63,6.19,152.02,-208.41,212.21
1778267521.1088495,1384523,-8.97,3.33,7.21,175.66,-209.87,219.50
1778267521.1095219,1384545,-11.03,4.33,8.39,205.73,-198.54,233.47
1778267521.1102195,1384567,-14.23,6.54,9.54,212.24,-188.60,250.13
1778267521.1671634,1384589,-17.84,7.10,10.22,195.47,-159.77,250.13
1778267521.1686676,1384611,-19.62,2.76,11.17,210.74,-105.82,250.13
1778267521.2266371,1384633,-19.62,-1.60,11.65,225.92,-78.08,250.13
1778267521.2857141,1384655,-19.62,-13.04,6.39,247.64,-67.70,250.13
1778267521.2875476,1384677,-19.62,-19.62,-5.07,250.13,7.50,232.87
1778267521.2885797,1384699,-19.62,-19.62,-5.45,248.84,172.92,184.69
1778267521.289925,1384721,-0.97,-14.13,-19.62,-250.14,250.13,-177.70
1778267521.2910256,1384743,-2.75,7.20,3.22,-250.14,7.79,-250.14
1778267521.3462892,1384765,-19.62,7.36,19.62,-250.14,-78.79,-223.90
1778267521.3477669,1384787,-11.81,8.00,5.46,-215.27,-69.15,-118.79
1778267521.348482,1384809,-5.75,-1.92,17.90,-134.02,-38.58,-49.62
1778267521.4069169,1384831,-5.50,7.00,4.50,-98.23,-32.11,-27.63
1778267521.408679,1384853,-5.55,3.40,7.11,-64.97,-26.95,-27.42
1778267521.466437,1384875,-4.48,2.17,8.71,-32.67,-14.61,-14.21
1778267521.467776,1384897,-4.47,3.53,6.85,-11.68,-2.67,-4.67
1778267521.4691446,1384919,-4.41,3.68,6.70,-7.60,1.27,-3.77
1778267521.5257952,1384941,-4.28,3.69,6.69,-8.15,2.01,-6.16
1778267521.5273738,1384963,-4.28,3.67,6.99,-7.39,3.98,-7.05
1778267521.52845,1384985,-4.39,3.78,6.40,-9.13,4.40,-8.85
1778267521.5874004,1385007,-4.67,3.49,6.70,-9.30,3.38,-11.66
1778267521.5886858,1385029,-4.49,3.52,6.74,-8.68,3.63,-12.37
1778267521.6474755,1385051,-4.56,3.38,6.70,-8.19,6.38,-13.73
1778267521.648574,1385073,-4.55,3.42,6.68,-7.31,9.88,-15.20
1778267521.6492035,1385095,-5.10,3.48,7.16,-5.44,13.56,-17.79
1778267521.7068567,1385117,-4.80,3.11,6.88,-2.48,17.47,-16.86
1778267521.708839,1385139,-4.60,3.34,6.69,-3.02,19.09,-17.89
1778267521.7101178,1385161,-4.72,3.33,6.43,-2.29,26.83,-20.89
1778267521.7656138,1385183,-4.34,3.13,6.69,-2.35,38.16,-26.60
1778267521.7672305,1385205,-4.55,2.91,6.87,-1.13,52.24,-26.56
1778267521.7679753,1385227,-4.57,3.44,6.83,-2.11,72.37,-34.02
1778267521.8257158,1385249,-4.49,2.69,6.33,-2.42,96.90,-41.02
1778267521.826928,1385271,-4.72,2.60,6.44,0.42,129.14,-47.14
1778267521.888257,1385293,-5.09,3.97,5.75,-9.29,169.24,-65.27
1778267521.8895907,1385315,-5.81,4.33,6.01,-26.60,220.10,-103.72
1778267521.8907828,1385337,-4.74,4.15,6.49,-55.30,250.13,-155.37
1778267521.946075,1385359,-7.76,7.28,3.61,-139.89,250.13,-250.14
1778267521.9476967,1385381,-18.28,4.03,10.90,-180.77,250.13,-250.14
1778267521.948288,1385403,-19.62,3.15,10.66,-155.85,250.13,-250.14
1778267522.0062308,1385425,-19.62,8.12,13.34,-130.07,250.13,-250.14
1778267522.0075924,1385447,-18.33,16.72,19.62,-105.26,172.97,-250.14
1778267522.0084677,1385469,15.75,6.87,5.72,-9.19,2.60,-209.73
1778267522.0664506,1385491,-5.51,10.08,19.62,74.61,-83.95,3.53
1778267522.1263297,1385513,-4.25,9.81,6.33,118.87,-156.89,109.12
1778267522.12775,1385535,-1.62,5.83,3.84,109.51,-202.86,134.97
1778267522.1287446,1385557,-0.98,3.18,2.07,108.02,-215.94,137.68
1778267522.1294386,1385579,-1.49,2.31,2.40,126.93,-208.15,141.63
1778267522.1861255,1385601,-4.16,3.57,4.39,162.46,-199.66,171.02
1778267522.1876335,1385623,-6.49,5.06,4.89,165.64,-206.98,204.50
1778267522.1886032,1385645,-8.25,4.52,6.18,150.27,-217.74,221.19
1778267522.2461615,1385667,-10.25,3.22,7.01,168.26,-221.15,233.31
1778267522.2477696,1385689,-11.05,3.27,8.27,209.83,-199.96,245.98
1778267522.306172,1385711,-14.15,5.57,10.57,222.19,-173.56,250.13
1778267522.3080885,1385733,-19.39,3.56,11.32,218.08,-135.31,250.13
1778267522.3093727,1385755,-19.62,1.52,13.04,195.08,-109.73,250.13
1778267522.3670533,1385777,-19.62,-6.24,11.25,194.77,-115.24,250.13
1778267522.3684077,1385799,-19.62,-18.92,1.01,223.40,-93.66,243.29
1778267522.3692544,1385821,-14.13,-19.62,0.01,250.13,77.08,185.25
1778267522.426354,1385843,-19.62,-17.87,-5.20,137.43,170.34,90.27
1778267522.4277394,1385865,1.54,-8.27,4.85,-119.18,250.13,-250.14
1778267522.4286993,1385887,-7.59,-3.95,6.42,-250.14,-117.09,-250.14
1778267522.4859533,1385909,-10.97,-0.21,17.70,-250.14,-9.46,-217.71
1778267522.5469072,1385931,-5.14,2.22,11.34,-228.67,-58.61,-109.19
1778267522.6064548,1385953,-7.26,1.06,10.74,-127.88,-52.47,-55.26
1778267522.607898,1385975,-6.16,5.53,3.58,-97.94,-37.10,-32.61
1778267522.6089313,1385997,-4.98,2.83,8.30,-58.46,-22.54,-23.21
1778267522.6097848,1386019,-4.51,2.57,7.81,-24.11,-9.40,-9.51
1778267522.6106505,1386041,-4.65,3.62,6.71,-3.56,0.38,-0.44
1778267522.6114902,1386063,-4.47,3.83,6.50,-4.50,3.39,-1.40
1778267522.6667068,1386085,-4.33,3.85,6.47,-5.54,5.24,-4.66
1778267522.668298,1386107,-4.35,4.13,6.31,-9.62,5.80,-9.00
1778267522.6693323,1386129,-4.39,3.84,6.25,-15.44,4.55,-14.60
1778267522.72665,1386151,-4.66,3.45,6.79,-14.37,3.02,-17.05
1778267522.7282634,1386173,-4.68,3.20,6.79,-9.52,4.00,-17.24
1778267522.7860148,1386195,-4.61,3.49,6.66,-6.61,7.37,-18.57
1778267522.7874815,1386217,-4.87,3.42,6.92,-4.19,10.71,-21.11
1778267522.7884028,1386239,-4.85,3.28,6.67,-4.84,11.15,-23.64
1778267522.8460968,1386261,-4.85,3.15,6.79,-2.82,11.87,-22.31
1778267522.9065537,1386283,-4.53,2.64,6.79,-4.18,15.61,-17.88
1778267522.908014,1386305,-4.62,3.15,6.83,-0.82,26.28,-16.95
1778267522.9089324,1386327,-4.55,3.24,6.49,3.14,42.37,-21.21
1778267522.9099898,1386349,-4.82,3.28,6.69,4.97,57.98,-24.85
1778267522.9107425,1386371,-4.50,3.24,6.56,6.14,79.30,-33.48
1778267522.9665205,1386393,-4.47,3.11,6.94,4.98,106.72,-38.73
1778267522.9678962,1386415,-4.72,2.87,6.10,6.32,147.50,-49.44
1778267523.026468,1386437,-5.10,4.35,5.56,-6.00,197.15,-79.44
1778267523.0280592,1386459,-4.73,4.02,5.19,-28.53,250.13,-128.53
1778267523.0288875,1386481,-6.08,6.88,5.78,-80.57,250.13,-193.98
1778267523.0869517,1386503,-12.05,6.53,7.22,-170.95,250.13,-250.14
1778267523.0885348,1386525,-19.62,3.78,13.43,-158.35,250.13,-250.14
1778267523.0899136,1386547,-19.62,5.43,11.20,-172.28,250.13,-250.14
1778267523.1463273,1386569,-19.62,17.75,14.96,-179.40,193.81,-250.14
1778267523.1478066,1386591,-5.91,19.62,19.62,-128.09,94.51,-175.14
1778267523.2063599,1386613,-18.21,11.70,19.62,-45.63,15.71,-37.85
1778267523.2078283,1386635,-3.46,9.29,7.73,110.33,-117.38,100.25
1778267523.2086108,1386657,-1.79,6.74,5.18,74.82,-189.08,116.93
1778267523.2665358,1386679,-1.20,3.15,2.23,73.61,-218.95,107.92
1778267523.2679043,1386701,-1.35,2.12,1.85,110.05,-222.47,108.69
1778267523.269034,1386723,-2.69,3.66,2.29,154.95,-211.48,132.35
1778267523.3265252,1386745,-5.41,5.49,3.74,167.15,-206.82,167.19
1778267523.3284357,1386767,-7.28,5.57,4.30,156.77,-210.97,199.07
1778267523.3293886,1386789,-9.31,5.20,5.56,159.89,-209.62,222.31
1778267523.3857486,1386811,-11.34,4.79,6.79,180.53,-200.14,248.92
1778267523.387244,1386833,-14.91,6.64,8.62,194.46,-187.87,250.13
1778267523.448677,1386855,-18.69,5.70,9.31,178.79,-168.40,250.13
1778267523.4514942,1386877,-19.62,1.98,10.04,182.40,-115.71,250.13
1778267523.4535158,1386899,-19.62,-2.53,10.74,187.92,-86.26,250.13
1778267523.5062594,1386921,-19.62,-11.98,6.16,211.84,-84.58,250.13
1778267523.5074666,1386943,-19.62,-19.62,-2.17,250.13,-26.03,231.66
1778267523.5082002,1386965,-19.62,-19.62,-5.22,247.89,130.49,190.34
1778267523.5666647,1386987,-8.27,-11.45,-5.33,-51.38,84.11,-56.23
1778267523.5685604,1387009,-7.59,19.62,0.60,-250.14,-29.80,-250.14
1778267523.6260843,1387031,-14.52,-5.74,19.62,-250.14,-3.92,-250.14
1778267523.6273432,1387053,-17.73,2.13,13.78,-205.02,-78.66,-135.61
1778267523.6284509,1387075,-7.23,2.29,11.06,-156.89,-40.17,-59.58
1778267523.6874783,1387097,-5.26,5.87,5.62,-96.27,-38.77,-34.05
1778267523.688934,1387119,-5.66,2.88,7.81,-80.99,-34.56,-27.42
1778267523.68968,1387141,-4.59,2.82,8.13,-41.85,-20.12,-15.30
1778267523.7468665,1387163,-4.54,2.91,7.36,-10.48,-3.87,-4.16
1778267523.748569,1387185,-4.43,3.62,6.73,-7.45,1.93,-1.91
1778267523.749642,1387207,-4.24,3.75,6.60,-6.31,3.96,-3.63
1778267523.806277,1387229,-4.25,3.83,6.59,-6.35,5.30,-6.35
1778267523.8077085,1387251,-4.33,3.96,6.48,-10.96,4.79,-11.47
1778267523.8654814,1387273,-4.59,3.46,6.80,-12.86,2.63,-15.62
1778267523.867955,1387295,-4.81,3.29,6.80,-9.05,2.49,-16.40
1778267523.8701682,1387317,-4.64,3.74,6.76,-6.47,2.71,-20.37
1778267523.9256592,1387339,-4.79,3.72,6.30,-8.02,2.20,-26.05
1778267523.9271545,1387361,-4.68,3.15,6.94,-7.75,4.79,-25.52
1778267523.9277718,1387383,-4.62,2.99,6.97,-8.37,9.02,-23.78
1778267523.9859848,1387405,-4.56,2.85,7.09,-5.37,14.56,-21.99
1778267523.987207,1387427,-4.16,2.95,6.92,-6.56,25.89,-21.90
1778267523.988231,1387449,-4.21,2.74,6.85,-4.86,41.39,-26.22
1778267524.0457888,1387471,-4.39,2.95,7.00,-2.79,57.91,-26.89
1778267524.0470045,1387493,-4.62,3.19,6.67,-3.59,80.00,-35.20
1778267524.1060247,1387515,-4.37,3.12,6.45,-7.68,106.34,-44.47
1778267524.1074483,1387537,-4.71,2.97,6.62,-10.19,141.80,-55.47
1778267524.1084042,1387559,-4.90,3.98,7.76,-20.23,193.40,-81.07
1778267524.166557,1387581,-5.47,3.99,6.69,-46.85,250.05,-131.56
1778267524.167969,1387603,-6.22,6.33,5.87,-72.40,250.13,-205.31
1778267524.1688263,1387625,-13.09,7.30,6.48,-192.56,250.13,-250.14
1778267524.226668,1387647,-19.62,2.95,14.34,-184.02,250.13,-250.14
1778267524.228058,1387669,-19.62,6.24,13.71,-189.15,250.13,-250.14
1778267524.2872183,1387691,-19.62,18.14,19.25,-162.79,194.25,-250.14
1778267524.289527,1387713,-7.50,19.62,19.62,-104.81,23.10,-147.10
1778267524.2905705,1387735,-16.34,16.28,19.62,-96.42,-83.26,-14.88
1778267524.3463073,1387757,-2.30,8.39,5.43,88.02,-123.03,93.56
1778267524.347783,1387779,-0.56,5.36,3.80,86.47,-173.46,102.23
1778267524.3492458,1387801,-0.00,3.38,1.37,92.21,-188.09,92.37
1778267524.4083252,1387823,-1.48,3.07,2.55,126.75,-188.88,101.15
1778267524.4103413,1387845,-3.04,4.68,3.53,162.13,-192.65,140.21
1778267524.4118187,1387867,-4.61,5.06,3.69,169.47,-194.74,176.37
1778267524.4670813,1387889,-6.40,4.50,4.88,169.69,-196.00,205.04
1778267524.4689653,1387911,-8.21,3.33,6.81,191.07,-192.79,225.39
1778267524.5263968,1387933,-10.41,3.64,8.34,224.56,-186.51,241.57
1778267524.5275955,1387955,-13.54,4.85,10.20,247.66,-179.44,250.13
1778267524.5285027,1387977,-17.73,6.89,10.42,233.53,-165.50,250.13
1778267524.585817,1387999,-19.62,4.52,11.04,189.79,-108.51,250.13
1778267524.5869148,1388021,-19.62,-1.34,12.47,168.44,-68.11,250.13
1778267524.5878754,1388043,-19.62,-11.22,10.67,191.43,-63.38,250.13
1778267524.6453125,1388065,-19.62,-19.62,0.32,220.38,-63.70,215.67
1778267524.7061746,1388087,-19.62,-19.62,-3.29,248.62,39.58,136.39
1778267524.7074158,1388109,-19.62,-14.15,-5.03,-2.29,66.93,-21.16
1778267524.7083397,1388131,-0.29,19.62,10.17,-250.14,105.80,-250.14
1778267524.7091033,1388153,-9.30,-5.72,2.91,-250.14,-51.76,-250.14
1778267524.7664058,1388175,-10.17,-3.13,19.62,-218.84,64.72,-164.68
1778267524.7680523,1388197,-13.12,2.49,14.32,-154.14,-32.30,-70.98
1778267524.7697716,1388219,-3.76,1.99,6.79,-146.86,-44.87,-37.26
1778267524.826073,1388241,-5.95,4.59,6.44,-89.66,-32.90,-36.90
1778267524.8272898,1388263,-5.42,2.34,8.40,-49.46,-24.92,-23.40
1778267524.8280802,1388285,-4.66,2.09,8.29,-9.53,-8.35,-9.00
1778267524.8871284,1388307,-4.46,3.42,6.82,-3.15,-1.25,-4.23
1778267524.8887753,1388329,-4.33,4.04,6.23,-2.18,0.11,-4.63
1778267524.9459732,1388351,-4.28,3.77,6.58,-6.54,0.87,-6.73
1778267524.947914,1388373,-4.23,3.80,6.47,-8.45,1.97,-9.69
1778267524.9486587,1388395,-4.46,3.87,6.36,-12.02,0.18,-14.65
1778267525.066605,1388417,-4.58,3.43,6.65,-12.40,-1.45,-18.31
1778267525.0680406,1388439,-4.69,3.76,6.27,-12.34,-0.99,-21.02
1778267525.069373,1388461,-4.76,3.31,6.76,-7.37,4.79,-18.86
1778267525.0704863,1388483,-4.56,3.51,6.59,-8.18,8.95,-21.03
1778267525.0715654,1388505,-4.61,2.99,7.05,-7.43,13.70,-22.73
1778267525.072894,1388527,-4.75,3.10,6.76,-8.10,16.59,-21.60
1778267525.1263297,1388549,-4.40,2.64,6.95,-6.31,19.93,-21.33
1778267525.1279876,1388571,-4.48,2.99,6.69,-3.72,33.33,-22.31
1778267525.1860473,1388593,-4.50,2.95,7.02,-3.01,46.81,-24.44
1778267525.1878812,1388615,-4.59,3.44,6.46,-5.15,64.44,-29.87
1778267525.1892743,1388637,-4.45,2.90,6.53,-8.66,89.13,-39.59
1778267525.2462568,1388659,-4.40,2.40,7.14,-8.31,120.60,-45.36
1778267525.2477322,1388681,-4.56,3.40,6.83,-13.49,165.85,-64.76
1778267525.2491033,1388703,-5.81,4.37,4.44,-34.73,218.52,-105.76
1778267525.3063993,1388725,-3.89,3.42,6.81,-57.59,250.13,-171.97
1778267525.3080778,1388747,-8.20,7.55,4.33,-146.68,250.13,-250.14
1778267525.3091724,1388769,-19.62,4.64,13.05,-213.29,250.13,-250.14
1778267525.3664548,1388791,-19.62,1.38,9.07,-209.28,250.13,-250.14
1778267525.4267507,1388813,-19.62,9.80,16.80,-179.06,218.24,-250.14
1778267525.4281971,1388835,-16.22,19.34,19.62,-166.45,105.72,-243.57
1778267525.4291203,1388857,-19.62,10.49,11.58,-134.24,88.24,-149.20
1778267525.4298432,1388879,-5.26,9.07,13.89,104.64,-84.63,72.72
1778267525.4864845,1388901,-2.47,9.06,4.90,111.78,-156.71,135.52
1778267525.4880905,1388923,-0.83,5.28,1.77,95.27,-194.16,136.93
1778267525.4892316,1388945,0.78,2.90,0.41,97.66,-192.99,125.59
1778267525.5469,1388967,-1.19,3.59,2.06,141.90,-170.15,137.72
1778267525.5514967,1388989,-3.93,5.74,4.15,161.48,-167.51,170.56
1778267525.6061947,1389011,-6.91,5.63,5.84,160.57,-184.15,209.49
1778267525.6075954,1389033,-8.23,4.42,6.44,172.17,-194.27,242.50
1778267525.608526,1389055,-10.23,4.65,7.46,184.31,-193.27,250.13
1778267525.6665106,1389077,-12.73,5.12,9.49,191.80,-187.27,250.13
1778267525.6679847,1389099,-17.17,6.67,12.00,201.29,-177.13,250.13
1778267525.6692197,1389121,-19.62,2.28,12.17,228.67,-136.27,250.13
1778267525.7271404,1389143,-19.62,0.62,12.89,215.89,-109.05,250.13
1778267525.728473,1389165,-19.62,-8.39,9.56,208.28,-107.93,250.13
1778267525.7294137,1389187,-19.62,-18.37,1.78,250.13,-70.95,219.08
1778267525.786674,1389209,-18.03,-19.62,-1.94,250.13,78.26,172.57
1778267525.7880726,1389231,-19.62,-14.61,-4.30,83.70,144.21,63.23
1778267525.845906,1389253,7.14,5.91,-2.85,-250.14,148.96,-250.14
1778267525.8470674,1389275,-8.38,-15.91,19.62,-250.14,-22.23,-250.14
1778267525.8481247,1389297,-11.98,-3.26,19.62,-243.94,-69.74,-182.73
1778267525.9061604,1389319,-9.82,18.42,-2.82,-198.61,-35.84,-45.56
1778267525.9075253,1389341,-6.22,3.86,7.89,-101.51,-39.21,-34.72
1778267525.9083018,1389363,-5.17,3.73,8.91,-97.90,-34.04,-28.24
1778267525.966234,1389385,-5.04,2.70,8.14,-45.79,-22.76,-17.27
1778267525.9677906,1389407,-4.35,3.34,7.27,-6.95,-5.84,-5.36
1778267525.969013,1389429,-4.27,3.74,6.74,-0.95,0.58,-0.70
1778267526.0254517,1389451,-4.20,3.82,6.60,-1.98,1.16,-3.20
1778267526.0271978,1389473,-4.20,3.97,6.42,-3.98,0.58,-7.39
1778267526.0858898,1389495,-4.23,4.16,6.16,-10.86,-1.24,-11.84
1778267526.0873134,1389517,-4.40,3.63,6.64,-16.51,-2.42,-16.30
1778267526.0878515,1389539,-4.54,3.62,6.76,-14.57,-2.43,-16.23
1778267526.1454718,1389561,-4.19,3.46,7.06,-12.81,0.37,-18.91
1778267526.1466663,1389583,-4.55,3.24,6.98,-10.13,7.16,-19.63
1778267526.147472,1389605,-4.69,3.54,7.62,-8.98,12.63,-20.92
1778267526.205922,1389627,-4.36,3.21,6.96,-7.01,19.54,-22.13
1778267526.265509,1389649,-4.71,3.42,6.89,-5.21,22.00,-20.14
1778267526.267247,1389671,-4.11,2.73,7.18,-4.24,32.51,-21.13
1778267526.2684598,1389693,-4.43,2.90,6.79,-2.92,46.11,-26.99
1778267526.2694335,1389715,-4.35,3.12,7.02,-4.63,59.92,-29.10
1778267526.3259604,1389737,-4.33,3.08,6.56,-5.98,81.34,-36.97
1778267526.3271933,1389759,-4.21,2.81,7.06,-4.11,109.95,-45.21
1778267526.328021,1389781,-4.56,2.97,6.59,-7.32,149.47,-57.03
1778267526.386564,1389803,-4.62,3.95,5.58,-21.95,198.06,-83.60
1778267526.3876185,1389825,-5.11,4.58,6.80,-53.68,248.18,-132.02
1778267526.38853,1389847,-6.52,7.44,4.67,-94.82,250.13,-216.76
1778267526.4461615,1389869,-12.20,7.06,7.20,-200.38,250.13,-250.14
1778267526.4477139,1389891,-19.62,3.33,15.81,-193.10,250.13,-250.14
1778267526.5054517,1389913,-19.62,6.00,13.27,-191.56,250.13,-250.14
1778267526.5065513,1389935,-19.62,16.69,18.74,-150.27,203.62,-250.14
1778267526.5077024,1389957,-4.35,19.62,19.62,-122.02,74.24,-193.73
1778267526.5660672,1389979,-15.23,4.61,19.62,-4.72,8.11,-61.20
1778267526.5673206,1390001,-2.93,9.21,8.17,131.52,-120.79,109.06
1778267526.5681987,1390023,-0.88,6.64,5.05,126.18,-171.77,143.33
1778267526.626733,1390045,-1.36,4.11,2.80,115.11,-195.34,148.97
1778267526.6281297,1390067,-1.07,2.66,1.97,117.29,-200.82,146.48
1778267526.629156,1390089,-2.60,2.56,3.53,143.13,-195.24,156.13
1778267526.6861117,1390111,-5.02,3.11,5.15,173.65,-200.60,184.05
1778267526.6874344,1390133,-6.35,3.42,5.88,190.02,-200.41,205.92
1778267526.745979,1390155,-8.68,2.80,8.17,208.33,-197.31,218.83
1778267526.7471716,1390177,-10.71,2.84,9.91,236.45,-192.92,230.46
1778267526.7484603,1390199,-13.07,4.41,11.30,250.13,-187.94,239.87
1778267526.8064342,1390221,-16.25,5.36,12.30,240.15,-169.05,250.13
1778267526.8084044,1390243,-19.62,3.12,13.19,215.97,-126.89,250.13
1778267526.8096614,1390265,-19.62,-2.18,13.65,190.55,-113.28,250.13
1778267526.8669174,1390287,-19.62,-13.82,6.48,202.29,-97.02,250.13
1778267526.8684287,1390309,-19.62,-18.97,-6.54,193.03,-35.75,202.68
1778267526.9260597,1390331,-19.62,-19.62,-2.37,232.20,124.21,147.79
1778267526.9274578,1390353,-19.62,-13.82,-3.85,-68.89,85.90,-40.08
1778267526.928423,1390375,-14.07,19.62,-0.63,-250.14,-30.50,-250.14
1778267526.9860418,1390397,-9.87,-19.62,19.62,-250.14,-28.50,-250.14
1778267526.987549,1390419,-13.23,-0.92,11.92,-250.14,-100.58,-155.36
1778267526.9884017,1390441,-7.60,-6.46,14.92,-151.59,-30.34,-52.25
1778267527.0461776,1390463,-5.59,6.39,4.54,-68.53,-24.07,-20.21
1778267527.047589,1390485,-5.09,2.11,8.23,-43.64,-15.73,-16.05
1778267527.048443,1390507,-4.29,3.48,6.90,-20.05,-7.63,-5.22
1778267527.106805,1390529,-4.37,3.27,7.06,-5.22,0.53,-1.72
1778267527.1085908,1390551,-4.34,3.43,6.84,-2.06,4.92,-0.40
1778267527.1660824,1390573,-4.39,3.65,6.62,-1.12,6.54,-1.75
1778267527.168134,1390595,-4.13,3.96,6.44,-2.24,6.75,-4.79
1778267527.1691031,1390617,-4.27,4.04,6.30,-10.58,4.11,-12.01
1778267527.226389,1390639,-4.52,3.54,6.48,-13.90,1.37,-16.45
1778267527.2280242,1390661,-4.49,3.38,7.10,-10.40,0.74,-17.52
1778267527.2291052,1390683,-4.41,3.51,6.46,-6.63,4.98,-18.59
1778267527.286258,1390705,-4.51,3.37,6.81,-4.28,7.37,-22.71
1778267527.2878027,1390727,-4.37,3.17,6.83,-4.79,9.75,-25.03
1778267527.288643,1390749,-4.50,2.81,6.98,-6.60,10.56,-22.71
1778267527.3461797,1390771,-4.65,2.97,6.89,-5.06,14.87,-19.70
1778267527.3479443,1390793,-4.44,2.89,7.03,-4.20,23.68,-16.60
1778267527.4063878,1390815,-4.34,2.95,7.04,-2.36,36.14,-19.32
1778267527.4080708,1390837,-4.37,3.17,6.79,0.79,51.30,-21.98
1778267527.409083,1390859,-4.37,3.34,6.39,-0.73,73.48,-32.47
1778267527.4667,1390881,-4.02,3.19,6.82,-3.16,99.10,-38.51
1778267527.4690008,1390903,-4.23,2.66,6.68,-2.00,136.87,-50.86
1778267527.4711962,1390925,-4.55,3.71,6.01,-13.46,187.70,-77.60
1778267527.527854,1390947,-4.61,3.85,5.66,-28.89,250.13,-122.83
1778267527.5293686,1390969,-6.79,7.47,5.68,-81.20,250.13,-192.84
1778267527.5860798,1390991,-10.51,6.85,6.09,-176.74,250.13,-250.14
1778267527.588105,1391013,-19.62,3.64,14.92,-194.23,250.13,-250.14
1778267527.5891838,1391035,-19.62,1.71,7.60,-187.21,250.13,-250.14
1778267527.647314,1391057,-19.62,14.45,15.02,-180.89,219.57,-250.14
1778267527.6495855,1391079,-11.30,18.49,19.62,-134.12,115.47,-200.57
1778267527.651806,1391101,-19.62,6.98,19.62,-104.37,54.56,-84.05
1778267527.7072392,1391123,-3.87,7.62,7.83,75.29,-116.27,86.24
1778267527.7087178,1391145,-1.38,6.36,4.58,74.89,-176.73,113.58
1778267527.7098415,1391167,-0.71,3.88,1.80,82.73,-199.49,109.98
1778267527.7670796,1391189,-1.72,2.94,1.83,114.43,-207.15,119.39
1778267527.768722,1391211,-2.73,3.71,2.19,144.66,-204.61,142.34
1778267527.8263705,1391233,-5.06,4.65,3.59,161.22,-203.88,176.74
1778267527.827681,1391255,-6.51,4.86,4.05,162.35,-206.16,210.01
1778267527.8288941,1391277,-8.24,4.59,5.18,161.35,-201.97,227.40
1778267527.8934155,1391299,-11.51,5.01,7.39,170.09,-205.80,246.18
1778267527.8947937,1391321,-12.95,5.47,8.14,186.15,-198.15,250.13
1778267527.8954966,1391343,-16.10,6.91,10.32,192.19,-176.08,250.13
1778267527.9463177,1391365,-19.62,3.55,11.08,202.67,-138.73,250.13
1778267528.0070395,1391387,-19.62,2.42,12.34,216.21,-105.41,250.13
1778267528.0087879,1391409,-19.62,-7.17,7.62,197.36,-116.76,250.13
1778267528.0101533,1391431,-19.62,-19.62,-1.03,250.13,-48.34,209.24
1778267528.0113065,1391453,-19.62,-19.62,-0.70,250.13,118.28,172.65
1778267528.0678802,1391475,-19.62,-14.06,-3.59,-0.33,55.27,-2.08
1778267528.0701709,1391497,-1.95,19.62,1.05,-250.14,88.72,-250.14
1778267528.0718026,1391519,-9.81,-7.33,6.43,-250.14,-15.48,-250.14
1778267528.1262517,1391541,-18.06,-0.30,19.62,-250.14,-31.73,-198.20
1778267528.1276045,1391563,-9.57,7.52,7.69,-163.47,-46.88,-52.14
1778267528.1284456,1391585,-6.78,3.81,8.16,-117.57,-43.95,-32.03
1778267528.186324,1391607,-4.93,3.65,7.48,-89.45,-31.63,-32.90
1778267528.1880193,1391629,-4.79,2.34,8.58,-43.56,-19.75,-18.63
1778267528.24817,1391651,-4.47,2.77,7.56,-8.60,-2.98,-4.29
1778267528.2504158,1391673,-4.44,3.49,6.82,-5.27,2.99,-0.89
1778267528.2514353,1391695,-4.34,3.57,6.67,-2.05,4.77,-1.88
1778267528.308785,1391717,-4.32,4.05,6.44,-2.64,5.89,-5.56
1778267528.3106713,1391739,-4.31,4.22,6.18,-11.73,4.80,-12.56
1778267528.3120809,1391761,-4.58,3.68,6.45,-16.08,2.56,-16.57
1778267528.3661983,1391783,-4.63,3.29,6.76,-10.77,1.95,-16.91
1778267528.3673844,1391805,-4.63,3.37,6.90,-6.60,3.37,-19.89
1778267528.3679662,1391827,-4.65,3.42,6.70,-5.99,4.78,-23.95
1778267528.4271033,1391849,-4.81,3.38,6.70,-6.63,6.11,-24.63
1778267528.4289327,1391871,-4.67,3.40,6.55,-6.24,10.50,-24.28
1778267528.485703,1391893,-4.84,3.32,6.44,-6.73,12.66,-22.29
1778267528.4870832,1391915,-4.36,2.73,7.17,-3.98,22.02,-21.31
1778267528.4879882,1391937,-4.40,3.12,6.60,-3.30,33.63,-23.05
1778267528.546167,1391959,-4.49,2.99,6.83,0.10,49.60,-23.60
1778267528.607047,1391981,-4.39,3.25,6.80,1.88,69.86,-28.82
1778267528.6087158,1392003,-4.31,3.40,6.62,-3.83,92.18,-38.89
1778267528.6098876,1392025,-4.30,2.52,6.55,-0.17,128.02,-45.27
1778267528.6109726,1392047,-4.67,4.02,5.79,-9.74,171.10,-66.69
1778267528.6118548,1392069,-5.04,5.12,5.34,-32.15,231.95,-113.73
1778267528.6669178,1392091,-5.06,4.99,6.10,-59.89,250.13,-175.95
1778267528.6686614,1392113,-9.40,8.17,4.15,-163.37,250.13,-250.14
1778267528.7260158,1392135,-19.62,3.73,14.11,-190.63,250.13,-250.14
1778267528.7276537,1392157,-19.62,0.04,11.07,-167.47,250.13,-250.14
1778267528.7285256,1392179,-19.62,11.57,14.00,-162.31,231.29,-250.14
1778267528.7861452,1392201,-13.16,17.83,19.62,-139.76,132.28,-232.28
1778267528.7879124,1392223,-19.62,10.61,0.52,-87.06,115.05,-151.24
1778267528.789331,1392245,-6.54,10.99,14.14,75.11,-87.44,81.58
1778267528.8465106,1392267,-2.95,8.85,5.33,70.91,-169.18,133.98
1778267528.848207,1392289,-1.98,5.45,3.01,52.95,-218.56,129.10
1778267528.9063132,1392311,-1.54,2.94,1.45,66.77,-240.48,124.80
1778267528.9667468,1392333,-1.55,2.45,1.38,119.76,-227.91,138.38
1778267528.9685051,1392355,-3.56,3.77,2.48,164.57,-207.56,165.85
1778267528.9699485,1392377,-6.96,5.19,4.16,163.89,-211.24,195.85
1778267528.9713697,1392399,-9.87,5.45,6.31,164.47,-219.86,224.98
1778267528.9730542,1392421,-11.90,5.55,7.04,170.35,-229.08,249.92
1778267529.0262575,1392443,-12.87,5.94,7.51,177.13,-213.96,250.13
1778267529.0277622,1392465,-17.53,5.53,9.98,191.88,-181.04,250.13
1778267529.0287237,1392487,-19.62,0.90,10.74,229.48,-140.19,250.13
1778267529.0880125,1392509,-19.62,-1.44,10.17,250.13,-100.73,250.13
1778267529.0899682,1392531,-19.62,-9.97,8.49,250.13,-67.31,250.13
1778267529.145702,1392553,-19.62,-17.53,1.86,250.13,-5.15,211.60
1778267529.1474006,1392575,-19.62,-18.36,-3.48,250.13,82.12,174.73
1778267529.1482935,1392597,-19.62,-16.24,-6.34,-5.45,88.73,63.77
1778267529.2064257,1392619,-5.97,10.03,3.50,-250.14,173.02,-237.58
1778267529.2078402,1392641,-3.14,-18.69,19.62,-250.14,5.01,-250.14
1778267529.2086487,1392663,-12.97,-3.82,19.62,-228.34,-55.26,-184.09
1778267529.2668207,1392685,-9.84,6.51,7.23,-182.61,-28.08,-62.02
1778267529.2690957,1392707,-5.86,5.22,7.83,-112.42,-41.31,-45.19
1778267529.2701435,1392729,-5.30,3.45,10.96,-116.19,-42.53,-41.02
1778267529.32663,1392751,-5.31,2.38,7.92,-70.39,-33.11,-29.50
1778267529.3291004,1392773,-4.56,3.55,6.75,-10.47,-7.37,-6.21
1778267529.386909,1392795,-4.58,3.65,6.64,-5.51,1.44,-1.08
1778267529.3888707,1392817,-4.31,3.55,6.57,-5.38,2.15,-2.48
1778267529.3901486,1392839,-4.19,3.75,6.72,-3.37,2.61,-5.63
1778267529.4476135,1392861,-4.27,3.89,6.53,-7.12,0.66,-10.27
1778267529.4500592,1392883,-4.50,3.52,6.64,-13.15,-1.84,-15.67
1778267529.4517517,1392905,-4.55,3.28,6.75,-11.18,-2.63,-17.31
1778267529.5096676,1392927,-4.25,3.08,6.84,-9.85,0.31,-17.94
1778267529.511134,1392949,-4.54,3.46,6.72,-8.18,4.69,-17.12
1778267529.5671916,1392971,-4.56,3.29,6.82,-6.95,10.08,-18.61
1778267529.569089,1392993,-4.48,3.24,6.84,-7.27,14.25,-18.67
1778267529.5708516,1393015,-4.58,3.03,6.77,-5.21,17.63,-18.84
1778267529.6875503,1393037,-4.60,2.73,6.93,-3.44,21.83,-17.82
1778267529.6900718,1393059,-4.62,2.94,6.74,-0.12,33.27,-18.14
1778267529.6911266,1393081,-4.68,2.90,7.04,1.20,46.15,-22.37
1778267529.6923242,1393103,-4.54,3.35,6.51,-0.69,64.01,-29.96
1778267529.6932726,1393125,-4.48,3.00,6.88,-4.20,87.63,-40.80
1778267529.694595,1393147,-4.44,2.95,6.82,-2.40,123.32,-47.86
1778267529.7465796,1393169,-4.71,3.81,5.80,-8.83,167.50,-65.67
1778267529.7481542,1393191,-5.21,4.36,6.27,-32.96,221.35,-102.03
1778267529.807254,1393213,-3.88,3.68,6.13,-56.83,250.13,-163.60
1778267529.809002,1393235,-7.76,7.32,5.83,-131.91,250.13,-250.14
1778267529.8103478,1393257,-17.55,4.53,9.79,-198.02,250.13,-250.14
1778267529.8679678,1393279,-19.62,2.52,10.68,-179.87,250.13,-250.14
1778267529.871054,1393301,-19.62,8.41,14.90,-161.11,250.13,-250.14
1778267529.8721907,1393323,-17.50,17.29,18.37,-148.04,155.78,-250.14
1778267529.9266071,1393345,13.63,8.66,-8.69,-64.26,36.02,-243.04
1778267529.9281256,1393367,-4.41,13.26,19.62,39.48,-36.85,-33.66
1778267529.9293952,1393389,-6.02,10.75,7.07,125.77,-121.05,106.05
1778267529.9861505,1393411,-3.22,7.42,4.47,110.75,-187.60,150.30
1778267529.9876206,1393433,-3.24,4.19,2.63,95.33,-230.47,165.83
1778267530.045908,1393455,-2.18,2.15,0.84,108.22,-239.26,165.72
1778267530.106991,1393477,-1.83,1.77,1.43,142.87,-213.48,167.20
1778267530.1094728,1393499,-5.13,3.71,3.49,174.30,-194.67,188.37
1778267530.1106956,1393521,-7.91,4.93,5.54,179.69,-199.95,215.64
1778267530.1118734,1393543,-9.72,4.70,6.69,179.83,-205.29,231.40
1778267530.1130302,1393565,-11.47,4.29,7.64,195.77,-197.42,246.09
1778267530.1677349,1393587,-15.20,7.25,9.52,206.52,-182.20,250.13
1778267530.1704824,1393609,-18.56,3.82,11.20,199.60,-148.51,250.13
1778267530.2262619,1393631,-19.62,0.64,13.59,225.81,-110.57,250.13
1778267530.2285113,1393653,-19.62,-4.46,13.49,231.38,-109.05,250.13
1778267530.2298062,1393675,-19.62,-14.58,6.90,244.60,-103.08,219.98
1778267530.287283,1393697,-16.46,-19.62,-0.41,250.13,-13.29,147.97
1778267530.2894783,1393719,-19.62,-19.62,-4.55,220.69,130.37,110.78
1778267530.2908695,1393741,-0.11,9.95,1.22,-250.14,61.06,-189.24
1778267530.3466094,1393763,-3.00,4.59,16.56,-250.14,-116.04,-250.14
1778267530.3482513,1393785,-11.13,-4.29,19.62,-250.14,7.71,-195.53
1778267530.3493893,1393807,-13.58,2.91,14.65,-175.97,-55.09,-65.66
1778267530.40616,1393829,-6.48,4.77,8.60,-95.82,-36.04,-31.13
1778267530.4077604,1393851,-4.84,4.05,7.32,-96.48,-31.25,-31.95
1778267530.467101,1393873,-5.38,3.38,7.46,-67.27,-25.50,-27.36
1778267530.4690037,1393895,-4.53,2.06,8.22,-17.26,-6.59,-11.44
1778267530.470031,1393917,-4.47,3.34,7.04,-11.24,2.27,-4.17
1778267530.5267503,1393939,-4.43,3.68,6.54,-10.03,5.73,-5.00
1778267530.587541,1393961,-4.29,3.42,6.72,-8.91,8.38,-6.38
1778267530.5898306,1393983,-4.31,3.69,6.62,-6.64,11.22,-9.21
1778267530.5910041,1394005,-4.73,3.61,6.60,-6.69,9.24,-13.93
1778267530.5922925,1394027,-4.50,3.52,6.54,-7.12,9.47,-17.72
1778267530.5939827,1394049,-4.62,3.31,6.76,-4.91,11.04,-20.88
1778267530.6469858,1394071,-4.68,3.01,6.58,-2.77,13.43,-24.34
1778267530.648149,1394093,-4.79,3.28,6.96,-0.85,16.44,-24.66
1778267530.7057636,1394115,-4.71,2.99,6.83,-5.57,15.07,-22.50
1778267530.7075732,1394137,-4.84,3.17,6.78,-4.89,21.31,-22.49
1778267530.7086852,1394159,-4.88,3.04,6.52,-3.95,30.07,-23.02
1778267530.7659905,1394181,-4.76,2.80,6.75,-4.15,39.54,-24.54
1778267530.7673893,1394203,-4.63,2.56,6.67,-2.62,53.77,-26.21
1778267530.7685475,1394225,-4.73,2.82,6.34,0.64,71.56,-27.82
1778267530.827071,1394247,-4.88,2.90,6.46,1.16,95.28,-36.85
1778267530.829028,1394269,-4.95,2.80,6.69,-1.43,130.19,-46.89
1778267530.8869376,1394291,-4.91,2.68,5.70,-5.20,169.30,-60.31
1778267530.888366,1394313,-5.16,3.92,5.43,-14.60,226.75,-91.66
1778267530.8901608,1394335,-4.89,4.43,5.85,-46.39,250.13,-148.77
1778267530.9463282,1394357,-9.62,8.75,6.00,-119.87,250.13,-238.49
1778267530.9479964,1394379,-19.16,3.31,11.01,-156.96,250.13,-250.14
1778267530.9489586,1394401,-19.62,3.57,9.00,-132.67,250.13,-250.14
1778267531.006075,1394423,-19.62,9.14,12.83,-124.66,250.13,-250.14
1778267531.00737,1394445,-17.14,18.40,19.58,-127.97,164.55,-250.12
1778267531.0085404,1394467,-1.58,12.54,-19.62,-40.14,108.24,-196.44
1778267531.0657077,1394489,-8.34,14.66,14.22,56.21,-65.36,39.02
1778267531.067726,1394511,-5.44,9.79,6.03,78.82,-175.03,136.50
1778267531.1255765,1394533,-2.88,5.19,4.00,65.02,-238.38,150.32
1778267531.1270406,1394555,-2.19,1.37,1.99,83.11,-250.14,142.17
1778267531.1278934,1394577,-1.00,0.28,1.45,138.46,-250.14,133.05
1778267531.1863887,1394599,-2.84,3.25,1.99,174.69,-233.56,138.43
1778267531.1877465,1394621,-6.12,5.02,4.47,170.41,-234.40,161.24
1778267531.188729,1394643,-8.14,4.68,5.62,171.13,-239.37,192.49
1778267531.2467213,1394665,-9.81,4.84,6.24,190.73,-232.50,218.60
1778267531.2481694,1394687,-10.99,5.25,7.60,208.98,-206.60,243.34
1778267531.2490587,1394709,-14.54,5.95,10.08,220.82,-177.56,250.13
1778267531.3066092,1394731,-19.45,5.11,11.42,217.34,-142.75,250.13
1778267531.3081458,1394753,-19.62,3.04,12.91,208.31,-110.42,250.13
1778267531.3662474,1394775,-19.62,-3.38,10.47,204.10,-89.31,250.13
1778267531.3680432,1394797,-19.62,-17.35,2.54,210.26,-59.98,249.82
1778267531.368845,1394819,-17.34,-19.62,-3.45,235.01,54.63,201.94
1778267531.426618,1394841,-19.62,-18.12,-4.43,183.69,176.90,106.24
1778267531.428391,1394863,-17.08,-12.76,-2.16,-199.60,25.04,-143.86
1778267531.429625,1394885,-9.38,19.62,2.22,-240.27,-3.31,-250.14
1778267531.4864612,1394907,-12.85,3.43,12.18,-250.14,-11.24,-244.73
1778267531.4883513,1394929,-19.62,4.13,17.72,-250.14,-102.79,-162.82
1778267531.5464957,1394951,-6.05,1.65,8.79,-160.14,-48.40,-60.11
1778267531.548971,1394973,-5.96,5.18,5.26,-109.24,-42.72,-38.44
1778267531.551585,1394995,-5.51,2.90,8.14,-86.92,-30.95,-33.72
1778267531.606119,1395017,-4.77,2.74,7.96,-41.49,-19.24,-17.00
1778267531.607755,1395039,-4.99,3.02,7.48,-6.96,-2.34,-3.53
1778267531.6087158,1395061,-4.53,3.74,6.79,1.24,3.83,1.39
1778267531.6677732,1395083,-4.31,3.80,6.48,0.25,5.29,-0.40
1778267531.6699135,1395105,-4.18,4.11,6.13,-5.60,4.37,-5.50
1778267531.6713042,1395127,-4.18,4.22,5.95,-16.11,2.53,-14.21
1778267531.7266614,1395149,-4.54,3.73,6.41,-17.52,1.66,-17.27
1778267531.728112,1395171,-4.65,3.33,6.87,-13.09,1.47,-16.77
1778267531.786965,1395193,-4.49,3.37,6.64,-8.66,1.69,-17.39
1778267531.7888448,1395215,-4.54,3.76,6.54,-8.40,1.88,-21.58
1778267531.7901678,1395237,-4.73,3.42,6.44,-9.17,1.82,-23.94
1778267531.8462605,1395259,-4.76,3.39,6.44,-10.21,4.45,-21.89
1778267531.8477476,1395281,-4.82,3.03,6.78,-8.83,8.62,-19.82
1778267531.8492937,1395303,-4.59,3.05,6.60,-3.85,15.14,-17.89
1778267531.9070203,1395325,-3.82,2.81,6.83,-3.74,28.60,-18.53
1778267531.9088647,1395347,-4.21,3.10,6.60,1.47,44.78,-21.08
1778267531.9102154,1395369,-4.31,3.27,6.62,2.19,64.83,-29.23
1778267531.9668894,1395391,-4.21,3.07,6.94,-0.39,88.53,-35.44
1778267531.9688892,1395413,-4.14,2.90,6.38,1.22,122.01,-44.27
1778267532.026464,1395435,-4.71,4.45,6.48,-6.95,169.61,-67.55
1778267532.0280793,1395457,-4.95,4.30,5.88,-28.05,229.94,-111.55
1778267532.0291636,1395479,-4.60,4.55,6.57,-48.63,250.13,-165.40
1778267532.0862987,1395501,-7.79,6.91,3.76,-137.54,250.13,-250.14
1778267532.0883167,1395523,-19.04,3.77,10.47,-183.85,250.13,-250.14
1778267532.089416,1395545,-19.62,2.29,11.10,-168.70,250.13,-250.14
1778267532.1469111,1395567,-19.62,9.22,13.98,-158.15,250.13,-250.14
1778267532.149123,1395589,-15.78,16.84,18.92,-143.31,162.33,-250.14
1778267532.2064452,1395611,14.05,11.42,-15.52,-36.68,11.20,-188.76
1778267532.207918,1395633,-6.02,10.39,19.62,78.17,-81.06,31.31
1778267532.2089505,1395655,-4.26,9.71,5.65,95.89,-161.43,123.62
1778267532.267559,1395677,-2.50,5.46,3.67,84.03,-218.09,140.44
1778267532.2698483,1395699,-2.20,2.81,1.91,99.54,-240.28,145.75
1778267532.2711236,1395721,-1.69,2.21,1.34,135.46,-230.45,150.12
1778267532.3264747,1395743,-3.48,3.57,2.53,166.95,-212.76,168.22
1778267532.3283994,1395765,-5.42,4.79,3.54,160.60,-205.85,185.13
1778267532.3294556,1395787,-7.87,4.45,5.50,167.56,-201.98,207.88
1778267532.3866968,1395809,-10.36,5.35,6.72,187.33,-201.82,233.89
1778267532.3885343,1395831,-12.11,6.21,8.03,191.47,-191.34,250.13
1778267532.4469836,1395853,-14.57,6.89,10.03,196.16,-166.47,250.13
1778267532.4492288,1395875,-18.53,2.70,11.14,216.19,-122.08,250.13
1778267532.4509153,1395897,-19.62,1.44,12.74,242.31,-79.62,250.13
1778267532.507605,1395919,-19.62,-2.90,11.21,219.99,-75.75,250.13
1778267532.5093417,1395941,-19.62,-17.28,2.88,231.34,-73.51,234.93
1778267532.5106502,1395963,-18.12,-19.62,-0.06,250.13,55.96,211.43
1778267532.5664485,1395985,-19.62,-15.76,-5.85,118.47,149.57,74.40
1778267532.568545,1396007,4.03,19.62,13.40,-250.14,91.79,-242.18
1778267532.5697396,1396029,-1.29,-7.80,13.42,-250.14,-36.48,-250.14
1778267532.626163,1396051,-11.56,-9.66,19.62,-219.19,8.08,-205.24
1778267532.6280692,1396073,-15.81,13.64,7.64,-229.59,-45.39,-84.47
1778267532.687399,1396095,-4.28,2.02,6.43,-123.16,-45.15,-46.73
1778267532.6892421,1396117,-5.32,5.69,7.44,-148.05,-49.08,-40.15
1778267532.6908927,1396139,-5.40,2.54,8.35,-71.77,-27.82,-28.60
1778267532.7475307,1396161,-4.77,2.05,8.30,-16.86,-6.05,-6.86
1778267532.7490435,1396183,-4.44,3.48,6.73,-5.28,1.24,0.03
1778267532.7508073,1396205,-4.50,3.79,6.55,-2.73,5.21,-1.24
1778267532.8065581,1396227,-4.37,3.62,6.54,-4.37,6.88,-4.31
1778267532.8080807,1396249,-4.38,4.10,6.36,-7.75,7.02,-8.46
1778267532.866079,1396271,-4.63,3.77,6.56,-13.64,4.71,-14.33
1778267532.867403,1396293,-4.58,3.39,6.65,-14.30,2.95,-17.33
1778267532.8684042,1396315,-4.55,3.31,6.88,-10.33,4.16,-17.42
1778267532.9251938,1396337,-4.52,3.34,6.73,-6.76,8.76,-18.31
1778267532.926602,1396359,-4.73,3.52,6.24,-4.73,11.04,-21.73
1778267532.9274406,1396381,-4.84,3.02,7.02,-3.57,15.66,-21.77
1778267532.986536,1396403,-4.56,3.14,6.68,-2.18,18.44,-18.53
1778267532.9879606,1396425,-4.74,2.99,6.71,-0.91,24.83,-16.75
1778267532.9890363,1396447,-4.72,3.08,6.54,2.08,31.83,-18.98
1778267533.0450082,1396469,-4.74,2.70,6.79,5.90,44.42,-19.69
1778267533.0464432,1396491,-4.75,2.92,6.66,9.33,60.12,-22.85
1778267533.1065056,1396513,-4.62,3.01,6.36,11.79,85.22,-32.08
1778267533.1676981,1396535,-4.48,2.79,6.54,13.41,116.91,-41.36
1778267533.1691349,1396557,-4.99,3.31,6.05,15.48,160.38,-57.51
1778267533.1699944,1396579,-4.62,4.63,5.49,-7.08,217.53,-91.35
1778267533.1710455,1396601,-4.92,4.68,6.35,-33.05,250.13,-144.20
1778267533.1719768,1396623,-8.61,8.60,4.76,-121.74,250.13,-243.32
1778267533.2267892,1396645,-15.10,4.22,9.69,-172.07,250.13,-250.14
1778267533.2289078,1396667,-19.62,3.28,9.80,-130.95,250.13,-250.14
1778267533.230047,1396689,-19.62,7.80,13.17,-116.92,250.13,-250.14
1778267533.3487475,1396711,-18.95,16.48,18.14,-118.05,217.56,-250.14
1778267533.350556,1396733,7.52,9.32,19.62,-64.59,105.64,-249.29
1778267533.351991,1396755,-7.34,6.10,16.46,8.09,-73.70,0.94
1778267533.3530812,1396777,-6.04,9.96,6.85,114.76,-185.80,167.15
1778267533.3539827,1396799,-2.97,4.80,4.68,101.10,-250.14,187.39
1778267533.406731,1396821,-2.74,1.93,1.52,85.33,-250.14,168.41
1778267533.408239,1396843,-1.63,0.97,0.38,104.39,-250.14,147.35
1778267533.4094913,1396865,-2.90,2.58,1.84,146.29,-242.01,153.02
1778267533.4666443,1396887,-6.13,5.36,3.58,155.78,-230.19,178.83
1778267533.468274,1396909,-8.88,5.90,4.79,143.65,-233.11,207.67
1778267533.5263689,1396931,-11.55,5.82,5.92,150.24,-233.05,237.39
1778267533.5276124,1396953,-13.22,5.87,6.48,168.93,-222.52,250.13
1778267533.5283809,1396975,-16.19,7.77,8.02,173.96,-198.36,250.13
1778267533.586632,1396997,-19.62,4.81,9.11,182.00,-162.91,250.13
1778267533.58843,1397019,-19.62,0.54,8.82,215.21,-127.11,250.13
1778267533.589373,1397041,-19.62,-5.94,6.34,250.13,-92.50,250.13
1778267533.6458318,1397063,-19.62,-19.62,0.55,250.13,-19.13,250.13
1778267533.6474802,1397085,-19.62,-19.62,-0.67,250.13,80.66,179.87
1778267533.648521,1397107,-19.62,-19.49,-4.66,60.35,70.71,34.44
1778267533.7060175,1397129,5.41,-1.08,4.04,-250.14,250.13,-250.14
1778267533.7076645,1397151,-7.53,-3.15,-5.16,-250.14,-38.94,-250.14
1778267533.7665918,1397173,-13.64,-5.33,19.62,-250.14,15.78,-225.68
1778267533.767866,1397195,-10.19,3.25,13.56,-220.31,-62.24,-94.73
1778267533.7691245,1397217,-6.56,0.18,11.47,-121.40,-43.11,-42.96
1778267533.8256128,1397239,-4.75,7.86,3.96,-115.32,-39.73,-32.95
1778267533.826944,1397261,-5.11,2.82,7.87,-66.30,-23.95,-27.93
1778267533.8284702,1397283,-4.53,2.26,8.27,-28.03,-11.02,-11.05
1778267533.8857944,1397305,-4.39,3.71,6.67,-7.65,0.05,-0.70
1778267533.8870168,1397327,-4.44,3.75,6.45,-4.61,4.73,0.74
1778267533.8881223,1397349,-4.22,3.59,6.77,-3.96,6.13,-2.32
1778267533.946187,1397371,-4.28,4.01,6.36,-4.89,8.17,-6.67
1778267533.947624,1397393,-4.42,3.95,6.16,-12.13,6.26,-14.96
1778267534.0064147,1397415,-4.73,3.51,6.76,-12.85,4.53,-18.85
1778267534.0089588,1397437,-4.58,3.33,6.77,-8.40,4.20,-18.83
1778267534.0127087,1397459,-4.58,3.26,6.86,-4.65,8.01,-19.34
1778267534.0668933,1397481,-4.54,3.31,6.86,-4.27,8.95,-26.26
1778267534.0684218,1397503,-5.19,3.30,6.42,-3.26,8.99,-30.24
1778267534.0700576,1397525,-5.03,3.37,6.33,-6.94,5.59,-25.42
1778267534.125955,1397547,-4.50,2.95,7.02,-8.11,11.66,-21.47
1778267534.127672,1397569,-4.50,2.88,6.77,-3.83,24.47,-18.72
1778267534.1865165,1397591,-4.52,2.72,6.94,-1.16,38.65,-18.40
1778267534.1886528,1397613,-4.30,3.08,6.69,3.33,54.56,-20.13
1778267534.189961,1397635,-4.27,3.06,6.66,6.77,80.24,-30.15
1778267534.2461314,1397657,-4.34,3.09,6.84,5.33,110.03,-37.59
1778267534.2479477,1397679,-4.65,3.23,6.10,2.70,149.67,-53.66
1778267534.2494297,1397701,-4.93,4.44,5.99,-10.93,204.51,-84.15
1778267534.3064666,1397723,-4.62,3.83,5.19,-37.22,250.13,-135.10
1778267534.3078873,1397745,-7.15,7.23,5.53,-97.26,250.13,-209.08
1778267534.3088095,1397767,-12.74,6.64,7.66,-183.09,250.13,-250.14
1778267534.3675659,1397789,-19.62,2.46,12.69,-154.11,250.13,-250.14
1778267534.369776,1397811,-19.62,5.80,13.20,-165.26,250.13,-250.14
1778267534.4267356,1397833,-19.62,18.04,16.39,-157.76,198.01,-250.14
1778267534.4285092,1397855,-7.22,18.73,19.62,-76.87,43.47,-132.11
1778267534.429752,1397877,-19.62,12.35,19.62,-40.37,-44.96,10.24
1778267534.4873147,1397899,-1.79,10.45,6.27,101.02,-115.47,133.46
1778267534.4890046,1397921,-1.40,6.12,4.93,62.96,-173.51,141.68
1778267534.4912875,1397943,-1.23,3.09,2.18,56.88,-207.36,130.07
1778267534.5463886,1397965,-1.40,2.21,1.94,96.34,-213.75,127.50
1778267534.5484037,1397987,-2.86,3.11,3.20,138.29,-205.27,143.49
1778267534.550399,1398009,-6.32,5.41,3.01,138.37,-212.85,176.92
1778267534.6063125,1398031,-8.04,5.49,4.79,136.97,-224.20,205.92
1778267534.6082659,1398053,-9.42,4.87,5.56,145.63,-225.40,224.05
1778267534.6689963,1398075,-11.66,5.69,6.41,161.76,-216.67,246.54
1778267534.6705031,1398097,-13.94,7.52,8.43,173.60,-195.73,250.13
1778267534.6718535,1398119,-19.18,6.49,10.12,183.50,-169.85,250.13
1778267534.7261474,1398141,-19.62,3.92,11.40,205.70,-146.53,250.13
1778267534.727787,1398163,-19.62,-1.45,9.67,233.95,-129.56,250.13
1778267534.7288609,1398185,-19.62,-15.72,2.63,250.13,-94.30,242.71
1778267534.7859812,1398207,-17.75,-19.62,-3.22,250.13,40.67,186.50
1778267534.7877538,1398229,-19.62,-19.62,-4.79,250.13,163.14,145.50
1778267534.8469179,1398251,-18.77,-13.19,-4.43,-140.42,60.69,-75.92
1778267534.8498397,1398273,-9.27,19.62,0.10,-250.14,-10.93,-250.14
1778267534.8534,1398295,-12.32,-19.62,19.62,-250.14,49.40,-227.29
1778267534.9062545,1398317,-19.62,-0.48,19.62,-235.05,-85.36,-170.90
1778267534.9082706,1398339,-8.25,7.14,5.34,-154.45,-44.67,-56.88
1778267534.909409,1398361,-6.62,6.64,4.84,-116.89,-46.32,-45.44
1778267534.9669015,1398383,-5.48,2.68,8.40,-86.21,-35.91,-36.75
1778267534.9683993,1398405,-4.13,1.89,8.73,-40.75,-20.15,-18.79
1778267534.9694529,1398427,-4.47,3.33,7.20,-1.21,-3.59,-3.55
1778267535.0319338,1398449,-4.43,3.71,6.45,2.40,1.62,0.85
1778267535.034201,1398471,-4.32,3.84,6.57,1.30,2.02,-2.20
1778267535.0874538,1398493,-4.31,4.19,6.22,-7.80,-0.29,-8.57
1778267535.0895376,1398515,-4.51,4.03,6.57,-18.56,-2.66,-13.59
1778267535.090806,1398537,-4.54,3.43,6.65,-20.56,-1.16,-15.21
1778267535.1461184,1398559,-4.36,3.48,6.54,-13.21,2.40,-15.23
1778267535.1476555,1398581,-4.51,3.39,6.75,-10.45,4.73,-15.69
1778267535.1486065,1398603,-4.48,3.32,6.64,-8.92,8.44,-18.53
1778267535.205732,1398625,-4.43,3.00,6.75,-6.50,13.16,-19.38
1778267535.2069125,1398647,-4.88,3.23,6.48,-5.73,16.75,-18.82
1778267535.2089303,1398669,-4.66,3.01,6.50,-3.60,19.42,-17.09
1778267535.2655883,1398691,-4.42,3.01,7.31,-1.33,28.69,-17.90
1778267535.2669508,1398713,-4.37,3.38,6.38,-0.22,40.56,-24.37
1778267535.3262405,1398735,-4.48,2.96,6.95,1.15,53.81,-25.49
1778267535.3278885,1398757,-4.47,3.15,6.66,0.93,73.49,-33.31
1778267535.3288379,1398779,-4.24,3.04,6.76,-0.73,99.81,-39.17
1778267535.3857,1398801,-4.44,3.15,6.54,-0.29,138.60,-50.99
1778267535.3877442,1398823,-4.60,4.62,6.32,-23.66,186.89,-77.95
1778267535.3889284,1398845,-4.04,4.41,5.67,-39.34,250.13,-128.92
1778267535.446787,1398867,-5.74,7.29,5.70,-86.51,250.13,-199.47
1778267535.4491253,1398889,-11.24,6.93,6.85,-190.21,250.13,-250.14
1778267535.5061417,1398911,-19.62,4.09,16.16,-180.21,250.13,-250.14
1778267535.507682,1398933,-19.62,4.91,10.25,-179.81,250.13,-250.14
1778267535.5088005,1398955,-19.62,14.71,15.50,-140.35,246.15,-250.14
1778267535.566931,1398977,-9.97,19.62,19.62,-33.44,124.06,-141.40
1778267535.5687196,1398999,-19.62,19.62,8.14,-90.72,12.69,-6.08
1778267535.5696192,1399021,-2.84,10.04,7.93,70.85,-104.40,107.05
1778267535.626168,1399043,-1.51,5.22,5.66,58.95,-168.09,126.15
1778267535.628672,1399065,-1.13,2.71,3.37,84.58,-199.09,120.84
1778267535.6299527,1399087,-2.31,2.20,3.37,135.06,-213.41,126.50
1778267535.6862175,1399109,-3.58,3.34,3.91,173.59,-221.48,150.37
1778267535.687949,1399131,-4.96,3.84,3.63,178.90,-226.12,175.42
1778267535.7461648,1399153,-5.40,3.16,4.22,177.41,-217.05,186.60
1778267535.7479556,1399175,-7.81,2.83,6.38,207.19,-201.44,198.39
1778267535.7495425,1399197,-10.81,4.28,8.10,245.63,-186.92,224.31
1778267535.8066037,1399219,-13.84,6.92,8.98,250.13,-172.36,250.13
1778267535.807896,1399241,-18.81,8.67,9.91,224.13,-150.21,250.13
1778267535.8091562,1399263,-19.62,4.52,10.56,176.70,-99.82,250.13
1778267535.8666189,1399285,-19.62,-3.82,11.22,182.22,-54.08,250.13
1778267535.869887,1399307,-19.62,-12.60,8.71,206.15,-38.21,250.13
1778267535.8711016,1399329,-19.62,-19.62,-2.23,175.53,-52.06,193.42
1778267535.9261365,1399351,-19.62,-19.62,-3.53,203.69,68.84,118.91
1778267535.986795,1399373,-19.62,-12.78,-3.60,-28.85,50.04,-53.60
1778267535.9882827,1399395,-11.00,19.62,1.46,-250.14,-14.12,-250.14
1778267535.9893212,1399417,-9.06,-2.49,16.80,-250.14,-17.53,-227.50
1778267535.9906847,1399439,-18.51,2.69,19.62,-242.98,-75.24,-163.89
1778267536.0465357,1399461,-6.03,6.67,7.25,-193.25,-53.83,-56.59
1778267536.0486355,1399483,-6.49,6.65,6.31,-129.50,-42.33,-42.25
1778267536.0503857,1399505,-5.47,2.08,8.55,-100.31,-34.80,-38.54
1778267536.106177,1399527,-4.89,2.19,8.96,-49.09,-20.57,-18.11
1778267536.107674,1399549,-4.95,2.87,7.49,-6.32,-2.19,-2.24
1778267536.1660917,1399571,-4.65,3.48,6.92,5.77,3.95,4.18
1778267536.1678817,1399593,-4.30,3.75,6.50,8.50,5.33,2.24
1778267536.1690328,1399615,-4.14,4.39,5.96,-0.49,2.89,-4.12
1778267536.2268982,1399637,-4.26,4.29,6.10,-14.76,-0.78,-11.11
1778267536.230687,1399659,-4.50,3.63,6.67,-19.53,-1.51,-15.62
1778267536.23229,1399681,-4.42,3.42,6.73,-16.72,-1.37,-16.74
1778267536.286627,1399703,-4.52,3.35,6.98,-12.85,-1.72,-18.73
1778267536.2881536,1399725,-4.65,3.50,6.58,-11.72,-2.18,-19.94
1778267536.2897563,1399747,-4.38,3.28,6.73,-12.21,0.77,-21.40
1778267536.3465042,1399769,-4.64,3.20,6.56,-11.34,6.98,-21.60
1778267536.3478591,1399791,-4.33,2.78,7.10,-6.69,15.26,-19.70
1778267536.4066052,1399813,-4.67,3.00,6.59,-2.47,20.53,-18.84
1778267536.4085603,1399835,-4.48,3.07,6.60,-0.68,29.05,-17.97
1778267536.4101179,1399857,-4.28,3.12,6.85,1.63,44.52,-21.92
1778267536.4667451,1399879,-4.41,3.31,6.66,3.13,65.51,-29.67
1778267536.468881,1399901,-4.16,3.21,7.23,1.79,92.14,-38.84
1778267536.4701574,1399923,-4.11,2.79,7.02,1.56,126.93,-46.47
1778267536.5262215,1399945,-4.38,3.49,5.71,-2.78,174.95,-66.24
1778267536.5277264,1399967,-5.43,4.77,5.57,-23.76,231.37,-105.77
1778267536.529068,1399989,-5.30,6.46,5.90,-63.03,250.13,-169.48
1778267536.5863416,1400011,-7.60,7.06,6.46,-153.15,250.13,-250.14
1778267536.5882792,1400033,-19.62,4.48,11.14,-201.55,250.13,-250.14
1778267536.6467602,1400055,-19.62,1.34,10.63,-185.90,250.13,-250.14
1778267536.6482966,1400077,-19.62,9.54,14.22,-162.22,250.13,-250.14
1778267536.6495597,1400099,-16.51,17.30,19.28,-132.64,162.22,-250.14
1778267536.7082078,1400121,-4.75,10.54,-19.62,-80.30,91.95,-196.51
1778267536.7096512,1400143,-8.22,12.91,15.31,41.92,-68.80,41.67
1778267536.7107306,1400165,-3.95,8.31,5.04,103.63,-145.02,139.96
1778267536.7658129,1400187,-2.53,4.75,3.30,99.82,-200.44,154.05
1778267536.7674513,1400209,-1.98,2.38,1.67,104.87,-221.69,150.42
1778267536.826016,1400231,-1.25,1.48,0.97,132.82,-215.41,148.71
1778267536.8276575,1400253,-2.81,3.42,2.10,155.07,-194.85,159.46
1778267536.8291292,1400275,-5.75,5.20,4.01,155.18,-193.05,184.40
1778267536.8863099,1400297,-8.52,5.10,5.99,157.44,-203.07,217.11
1778267536.888008,1400319,-10.24,4.64,6.63,170.58,-210.15,237.78
1778267536.8893416,1400341,-11.42,4.51,7.02,189.62,-196.80,250.13
1778267536.9461343,1400363,-14.59,7.89,8.67,196.26,-175.55,250.13
1778267536.948113,1400385,-19.62,7.19,11.20,192.50,-147.53,250.13
1778267536.9495242,1400407,-19.62,2.05,11.57,213.08,-114.44,250.13
1778267537.0062602,1400429,-19.62,-3.96,10.78,232.59,-98.81,250.13
1778267537.0078156,1400451,-19.62,-17.43,5.57,250.13,-58.56,245.50
1778267537.0669954,1400473,-18.21,-19.62,2.94,250.13,66.31,189.40
1778267537.1262126,1400495,-19.62,-19.62,-4.00,166.11,139.30,94.15
1778267537.128132,1400517,5.60,7.68,-4.97,-250.14,140.71,-250.14
1778267537.1294248,1400539,-10.36,-19.62,19.62,-250.14,-57.24,-250.14
1778267537.1305385,1400561,-5.34,-5.29,19.62,-250.14,-78.34,-171.84
1778267537.187087,1400583,-6.94,0.92,12.32,-213.02,-57.31,-53.51
1778267537.1897252,1400605,-6.56,7.53,4.82,-96.43,-41.36,-33.11
1778267537.1913884,1400627,-5.18,1.40,9.69,-87.95,-32.37,-34.50
1778267537.1924467,1400649,-4.38,2.27,8.21,-49.45,-20.85,-17.77
1778267537.2463436,1400671,-4.47,3.02,7.32,-7.44,-3.40,-3.49
1778267537.2485495,1400693,-4.57,3.44,6.93,0.44,3.28,2.37
1778267537.3069084,1400715,-4.15,3.77,6.62,0.76,4.53,1.08
1778267537.3086114,1400737,-4.21,4.12,6.40,-0.80,4.48,-2.95
1778267537.3099153,1400759,-4.24,4.13,6.33,-6.67,3.23,-8.16
1778267537.3661108,1400781,-4.39,3.81,6.65,-13.88,1.21,-14.14
1778267537.3683925,1400803,-4.52,3.29,6.88,-13.32,0.95,-15.97
1778267537.3692005,1400825,-4.51,3.35,6.75,-9.85,2.44,-16.02
1778267537.4280906,1400847,-4.54,3.51,6.68,-6.78,2.76,-16.41
1778267537.4298804,1400869,-4.52,3.53,6.62,-7.49,4.24,-21.15
1778267537.4855092,1400891,-4.66,3.53,6.69,-7.96,6.85,-23.44
1778267537.4868786,1400913,-4.49,3.27,7.08,-4.67,11.95,-23.89
1778267537.487751,1400935,-5.19,3.44,6.88,-5.53,13.82,-22.12
1778267537.5464637,1400957,-4.66,2.98,6.81,-3.77,20.10,-19.92
1778267537.5492568,1400979,-4.50,3.04,6.91,-2.14,33.25,-20.84
1778267537.5507998,1401001,-4.43,2.98,6.91,1.75,50.98,-22.21
1778267537.60596,1401023,-4.50,3.28,6.68,-0.03,69.68,-30.49
1778267537.6073277,1401045,-4.25,2.91,7.01,-4.80,92.18,-37.57
1778267537.6082218,1401067,-4.14,2.96,6.55,-1.90,128.75,-46.27
1778267537.666274,1401089,-4.57,4.72,5.53,-17.97,175.03,-71.08
1778267537.6677988,1401111,-4.80,4.88,6.28,-42.85,231.25,-118.74
1778267537.7258754,1401133,-5.00,5.24,6.47,-79.92,250.13,-181.29
1778267537.7270956,1401155,-8.92,5.71,5.28,-165.50,250.13,-250.14
1778267537.7279425,1401177,-19.62,3.02,13.23,-204.21,250.13,-250.14
1778267537.7866309,1401199,-19.62,0.63,10.01,-187.69,250.13,-250.14
1778267537.7880526,1401221,-19.62,10.87,15.01,-177.63,222.75,-250.14
1778267537.78886,1401243,-12.32,17.55,19.25,-147.00,125.78,-236.53
1778267537.846354,1401265,-19.62,8.79,-5.05,-120.85,95.12,-154.98
1778267537.8478918,1401287,-6.95,12.12,14.52,76.36,-89.65,75.72
1778267537.849462,1401309,-3.56,8.54,5.25,97.47,-152.18,140.53
1778267537.906275,1401331,-3.03,4.97,3.14,88.56,-202.25,152.11
1778267537.9078295,1401353,-1.48,2.45,0.85,99.36,-220.34,150.62
1778267537.9676921,1401375,-1.37,2.15,1.57,132.73,-205.65,152.42
1778267537.9692173,1401397,-3.71,3.77,3.35,160.03,-193.78,173.51
1778267537.9704323,1401419,-5.71,4.65,4.47,160.40,-196.07,196.31
1778267538.0261962,1401441,-7.85,4.03,6.44,163.40,-200.54,211.62
1778267538.0279145,1401463,-9.79,3.59,7.80,196.35,-200.46,224.17
1778267538.0287797,1401485,-11.45,3.10,9.53,239.66,-186.11,235.70
1778267538.0856726,1401507,-15.97,3.86,11.94,250.13,-177.10,233.24
1778267538.0884027,1401529,-19.62,4.24,11.69,250.13,-155.11,241.02
1778267538.1462107,1401551,-19.62,3.33,10.65,217.82,-115.92,250.13
1778267538.1482546,1401573,-19.62,-4.39,9.67,184.98,-81.76,250.13
1778267538.1494718,1401595,-19.62,-11.93,4.90,191.93,-38.34,246.66
1778267538.2067437,1401617,-19.62,-15.27,-6.26,145.08,31.82,200.50
1778267538.208094,1401639,-19.62,-19.62,-2.92,78.98,116.21,126.10
1778267538.2093656,1401661,-7.95,-9.03,-2.50,-40.69,110.54,-64.31
1778267538.266578,1401683,-7.83,19.62,4.52,-250.14,50.37,-223.97
1778267538.2690642,1401705,-6.71,-9.49,19.62,-250.14,16.99,-187.82
1778267538.270693,1401727,-14.40,4.82,19.62,-223.05,-2.13,-151.54
1778267538.325167,1401749,-11.25,3.08,15.64,-116.91,-33.60,-61.85
1778267538.326,1401771,-4.73,4.13,8.01,-116.50,-42.42,-43.15
1778267538.3862681,1401793,-4.85,2.60,6.53,-104.01,-39.34,-39.35
1778267538.3878062,1401815,-4.70,2.43,8.66,-61.76,-26.21,-28.99
1778267538.3887813,1401837,-4.96,2.87,7.83,-19.76,-11.25,-11.99
1778267538.4465983,1401859,-4.64,3.73,6.80,-8.37,-3.51,-4.33
1778267538.4486127,1401881,-4.21,3.57,6.60,-6.54,-0.11,-4.60
1778267538.4500573,1401903,-4.13,3.90,6.62,-7.93,0.76,-6.64
1778267538.505994,1401925,-4.20,4.40,6.10,-16.74,-0.82,-11.37
1778267538.508643,1401947,-4.33,3.37,6.60,-16.92,-1.39,-14.46
1778267538.509757,1401969,-4.34,3.10,6.69,-12.71,-0.96,-16.06
1778267538.5662298,1401991,-4.18,3.12,7.55,-11.82,1.55,-18.78
1778267538.5679016,1402013,-4.63,3.26,6.97,-9.84,5.79,-18.73
1778267538.6257124,1402035,-4.36,2.85,6.65,-4.37,10.72,-20.18
1778267538.6274168,1402057,-4.66,2.90,6.87,-5.19,13.89,-19.30
1778267538.6293516,1402079,-4.68,3.01,6.89,-5.32,14.60,-18.53
1778267538.6870756,1402101,-4.93,2.80,6.75,-2.67,18.51,-18.81
1778267538.6886969,1402123,-4.68,3.10,6.91,-1.37,26.93,-19.24
1778267538.689727,1402145,-4.65,2.90,6.97,-1.99,37.28,-21.13
1778267538.746641,1402167,-4.55,3.35,6.61,-4.97,52.49,-25.73
1778267538.7480843,1402189,-4.44,2.97,6.90,-5.84,74.89,-34.55
1778267538.8062425,1402211,-4.50,2.64,6.91,-6.17,103.15,-39.75
1778267538.8079846,1402233,-4.38,3.20,6.97,-9.06,142.45,-52.73
1778267538.8088994,1402255,-3.99,3.48,6.38,-23.73,197.44,-81.89
1778267538.8665285,1402277,-3.95,2.71,6.86,-39.29,250.13,-132.10
1778267538.8691037,1402299,-6.78,7.56,6.12,-108.03,250.13,-216.53
1778267538.8701527,1402321,-13.77,4.40,8.40,-178.92,250.13,-250.14
1778267538.9264772,1402343,-19.62,4.06,11.59,-166.85,250.13,-250.14
1778267538.9282966,1402365,-19.62,5.85,13.86,-154.30,250.13,-250.14
1778267538.9295466,1402387,-19.62,16.03,19.62,-99.85,224.14,-250.14
1778267538.987398,1402409,19.62,8.11,19.62,25.70,-81.47,-129.32
1778267538.9892726,1402431,-8.42,12.75,11.86,66.69,-100.08,40.18
1778267539.0461602,1402453,1.22,8.44,3.85,70.05,-165.11,87.87
1778267539.0485277,1402475,1.68,3.23,1.97,75.39,-172.50,65.37
1778267539.050233,1402497,0.07,3.09,2.79,130.81,-165.05,77.95
1778267539.1069899,1402519,-2.73,5.12,0.19,166.79,-163.48,116.36
1778267539.1095586,1402541,-5.44,6.34,4.51,155.87,-195.06,171.98
1778267539.1671617,1402563,-4.86,4.07,4.84,148.15,-202.87,206.34
1778267539.1688235,1402585,-6.65,1.69,6.72,167.16,-191.16,210.61
1778267539.1708686,1402607,-9.68,1.15,8.87,219.45,-193.38,206.17
1778267539.1717663,1402629,-11.57,1.10,9.86,250.13,-195.25,194.67
1778267539.2261326,1402651,-14.28,2.55,9.94,250.13,-183.31,190.21
1778267539.227596,1402673,-17.32,5.68,9.30,250.13,-141.49,225.59
1778267539.2863998,1402695,-19.62,5.20,9.52,202.17,-90.18,250.13
1778267539.2884712,1402717,-19.62,-1.59,9.41,171.26,-52.70,250.13
1778267539.2897315,1402739,-19.62,-8.90,4.94,171.38,-10.68,250.13
1778267539.3458219,1402761,-19.62,-19.39,-1.79,131.67,57.40,250.13
1778267539.347383,1402783,-19.19,-19.62,-4.20,73.79,116.36,170.60
1778267539.3482435,1402805,-19.62,-19.62,-7.30,-13.12,250.13,-149.63
1778267539.4061706,1402827,-5.51,16.62,10.92,-250.14,23.01,-250.14
1778267539.407866,1402849,-19.62,-3.84,19.62,-244.64,2.79,-214.98
1778267539.466288,1402871,-6.62,10.16,0.55,-174.75,-37.44,-105.03
1778267539.469568,1402893,-6.97,-2.45,19.16,-108.20,-23.24,-38.69
1778267539.471162,1402915,-5.67,7.64,2.68,-97.00,-29.89,-28.05
1778267539.5266602,1402937,-4.66,4.59,6.18,-97.53,-39.59,-37.11
1778267539.5279398,1402959,-4.75,2.40,8.52,-68.02,-27.26,-27.55
1778267539.52905,1402981,-4.88,3.36,7.13,-33.94,-13.05,-14.40
1778267539.585823,1403003,-4.66,3.21,7.11,-13.85,-2.47,-6.52
1778267539.587293,1403025,-4.50,3.69,6.62,-10.98,1.36,-4.69
1778267539.588383,1403047,-4.31,3.76,6.49,-10.01,4.56,-6.29
1778267539.645594,1403069,-4.53,3.88,6.30,-14.25,4.69,-11.64
1778267539.6468391,1403091,-4.62,3.54,6.71,-16.17,2.63,-15.05
1778267539.7065573,1403113,-4.58,3.67,6.63,-13.66,3.06,-15.26
1778267539.7079666,1403135,-4.67,3.35,6.81,-9.25,6.28,-17.00
1778267539.7088976,1403157,-4.69,3.42,6.61,-7.38,8.31,-19.17
1778267539.7657597,1403179,-4.76,3.35,6.70,-5.41,10.66,-21.36
1778267539.7675433,1403201,-4.89,3.32,6.50,-4.56,12.36,-20.91
1778267539.7684002,1403223,-4.92,3.15,6.56,-3.62,15.69,-19.71
1778267539.8272483,1403245,-4.71,2.97,6.58,-2.53,23.50,-20.85
1778267539.8288486,1403267,-4.47,3.13,6.41,0.33,35.92,-24.37
1778267539.8295496,1403289,-4.63,3.04,6.62,1.78,51.85,-26.24
1778267539.8875153,1403311,-4.47,3.21,6.70,2.18,73.94,-34.85
1778267539.8890185,1403333,-4.48,2.77,6.79,1.53,98.37,-39.36
1778267539.9475555,1403355,-4.72,2.88,6.62,4.18,134.69,-45.86
1778267539.949476,1403377,-4.68,3.81,5.40,-2.85,182.96,-68.15
1778267539.9506624,1403399,-5.11,4.83,5.03,-26.17,244.24,-111.57
1778267540.0059261,1403421,-5.15,5.68,5.42,-68.42,250.13,-173.23
1778267540.0071013,1403443,-9.63,6.79,7.65,-156.83,250.13,-250.14
1778267540.0080192,1403465,-19.62,7.08,15.16,-126.48,250.13,-250.14
1778267540.0661376,1403487,-19.62,8.75,14.28,-109.87,250.13,-250.14
1778267540.0674067,1403509,-19.62,18.82,19.62,-47.12,210.27,-250.14
1778267540.1261399,1403531,19.62,18.67,-18.44,-45.66,-23.16,-155.11
1778267540.1274655,1403553,-3.09,15.09,14.50,-29.73,-79.69,-4.52
1778267540.1283226,1403575,3.58,7.65,2.85,21.83,-114.75,45.81
1778267540.186135,1403597,2.41,4.40,2.71,36.89,-134.65,14.75
1778267540.1878903,1403619,-1.04,5.11,4.37,96.23,-159.44,35.95
1778267540.1888871,1403641,-2.37,7.50,4.18,118.44,-188.48,82.76
1778267540.2503684,1403663,-2.67,6.51,3.03,107.48,-202.94,120.94
1778267540.2517865,1403685,-4.09,5.29,3.53,120.25,-197.75,156.90
1778267540.252758,1403707,-6.82,5.46,5.22,138.35,-199.49,187.05
1778267540.306904,1403729,-9.21,5.43,6.59,152.37,-207.76,207.15
1778267540.3083508,1403751,-11.48,4.87,7.88,186.92,-212.18,230.27
1778267540.3659647,1403773,-13.65,4.55,9.04,228.75,-202.72,244.35
1778267540.3674722,1403795,-17.17,4.23,9.43,247.85,-184.79,250.13
1778267540.3687756,1403817,-19.62,5.02,9.38,207.13,-138.52,250.13
1778267540.426064,1403839,-19.62,-1.83,9.91,167.35,-96.48,250.13
1778267540.4273674,1403861,-19.62,-9.73,8.75,201.66,-63.07,250.13
1778267540.4284146,1403883,-19.62,-13.53,3.12,154.57,-37.85,201.50
1778267540.4861925,1403905,-16.26,-19.62,-3.29,61.73,18.96,114.26
1778267540.4876099,1403927,-19.62,-19.62,3.10,-29.53,173.08,-72.48
1778267540.488618,1403949,-7.93,2.24,10.55,-250.14,162.89,-250.14
1778267540.5460005,1403971,-19.62,-4.57,14.97,-227.26,-11.15,-228.85
1778267540.54778,1403993,-13.40,5.06,11.46,-213.76,-43.40,-84.76
1778267540.6056395,1404015,-5.72,-0.96,11.76,-107.06,-31.37,-38.95
1778267540.6070242,1404037,-5.26,5.92,6.73,-100.15,-31.33,-25.04
1778267540.6078966,1404059,-5.37,3.95,7.02,-68.68,-26.18,-25.85
1778267540.6657467,1404081,-4.60,2.80,7.91,-32.56,-13.23,-12.74
1778267540.6674309,1404103,-4.46,3.16,7.13,-13.94,-2.11,-5.11
1778267540.6686969,1404125,-4.44,3.53,6.73,-7.83,3.91,-1.74
1778267540.7258627,1404147,-4.47,3.64,6.77,-6.96,6.79,-3.44
1778267540.7275257,1404169,-4.25,3.81,6.44,-8.73,9.06,-6.02
1778267540.7859123,1404191,-4.40,3.85,6.37,-14.38,8.23,-13.55
1778267540.7873187,1404213,-4.68,3.52,6.57,-12.99,7.18,-14.23
1778267540.7881632,1404235,-4.73,3.19,6.86,-8.74,8.88,-14.70
1778267540.8453898,1404257,-4.67,3.11,6.87,-6.55,12.28,-14.28
1778267540.846744,1404279,-4.56,3.35,6.56,-4.50,17.46,-14.52
1778267540.8477294,1404301,-4.64,2.99,6.94,0.05,22.48,-13.37
1778267540.906223,1404323,-4.51,3.08,6.82,4.12,29.18,-12.92
1778267540.9076793,1404345,-5.03,3.31,6.53,7.52,32.53,-16.34
1778267540.9087043,1404367,-5.09,3.38,6.11,5.91,35.27,-22.51
1778267540.9656365,1404389,-4.78,3.00,6.37,4.92,40.40,-26.56
1778267540.9672484,1404411,-4.88,3.11,6.42,3.97,50.38,-29.36
1778267541.0258114,1404433,-4.87,3.25,6.34,2.83,67.98,-37.42
1778267541.0269473,1404455,-4.71,2.97,6.55,1.39,92.11,-42.52
1778267541.027894,1404477,-4.89,2.74,6.38,1.85,126.47,-50.52
1778267541.0852349,1404499,-4.97,3.78,5.57,-5.21,169.08,-68.02
1778267541.0863593,1404521,-5.63,4.63,5.55,-23.05,230.82,-106.33
1778267541.1462424,1404543,-5.03,4.49,5.41,-56.50,250.13,-155.94
1778267541.147489,1404565,-9.31,7.54,6.10,-135.23,250.13,-248.79
1778267541.148542,1404587,-19.62,2.54,12.83,-138.16,250.13,-250.14
1778267541.1493914,1404609,-19.62,2.04,6.57,-125.66,250.13,-250.14
1778267541.2059693,1404631,-19.62,12.15,12.61,-130.69,241.40,-250.14
1778267541.2072995,1404653,-12.05,19.62,19.62,-117.08,139.40,-220.26
1778267541.2659025,1404675,-19.62,11.83,12.78,-32.47,84.21,-112.44
1778267541.2673378,1404697,-3.69,12.81,13.76,97.89,-90.53,72.26
1778267541.2683105,1404719,-1.30,8.98,4.42,51.63,-169.79,102.14
1778267541.3256545,1404741,-0.82,4.90,2.87,28.60,-209.48,90.84
1778267541.3270957,1404763,-1.85,2.85,2.89,69.27,-225.74,101.23
1778267541.3282323,1404785,-2.70,3.68,3.33,127.02,-222.82,127.31
1778267541.3858716,1404807,-5.15,4.97,3.84,147.36,-228.02,156.69
1778267541.3870752,1404829,-7.36,5.51,4.26,144.37,-236.89,180.30
1778267541.4457192,1404851,-9.65,5.04,5.85,149.34,-241.52,204.75
1778267541.4470158,1404873,-11.83,5.15,6.71,172.43,-241.11,230.59
1778267541.4479306,1404895,-12.89,5.18,7.13,186.80,-223.18,244.85
1778267541.5058599,1404917,-16.06,5.35,10.47,199.53,-193.90,250.13
1778267541.507206,1404939,-19.62,5.19,10.39,205.69,-161.02,250.13
1778267541.50797,1404961,-19.62,1.54,10.01,220.66,-118.38,250.13
1778267541.6259959,1404983,-19.62,-5.82,7.80,242.13,-70.96,250.13
1778267541.6278172,1405005,-19.62,-12.99,2.46,250.13,-6.37,230.09
1778267541.628801,1405027,-19.62,-18.57,3.55,206.86,77.26,198.02
1778267541.6298413,1405049,-19.62,-18.06,-4.24,70.46,127.09,107.65
1778267541.630414,1405071,5.84,3.20,-6.56,-124.21,68.37,-104.48
1778267541.6861784,1405093,-4.13,15.29,3.23,-250.14,55.59,-229.45
1778267541.6875188,1405115,-10.81,-14.07,19.62,-242.39,63.80,-209.05
1778267541.688412,1405137,-16.02,9.33,9.94,-150.08,-65.52,-125.98
1778267541.7457685,1405159,-4.76,3.29,16.75,-156.56,-24.15,-37.68
1778267541.747109,1405181,-6.32,7.52,4.78,-98.53,-36.44,-32.34
1778267541.7480156,1405203,-4.92,4.87,8.51,-92.91,-35.09,-32.58
1778267541.8057978,1405225,-4.67,3.07,7.93,-63.82,-23.66,-25.68
1778267541.8070152,1405247,-4.78,3.43,7.40,-30.89,-13.13,-12.49
1778267541.8077798,1405269,-4.52,3.86,6.51,-17.06,-3.91,-6.84
1778267541.8660533,1405291,-4.22,3.80,6.50,-13.92,0.47,-8.24
1778267541.8675673,1405313,-4.25,3.98,6.45,-13.33,2.72,-9.88
1778267541.9263005,1405335,-4.39,3.77,6.61,-15.08,4.14,-12.95
1778267541.9276288,1405357,-4.78,3.48,6.65,-11.18,4.41,-15.17
1778267541.9283473,1405379,-4.59,3.38,6.68,-8.13,4.65,-17.02
1778267541.9855106,1405401,-4.53,3.41,6.65,-6.28,5.79,-18.80
1778267541.9868312,1405423,-4.79,3.23,6.62,-7.11,4.47,-22.40
1778267541.9876847,1405445,-4.82,3.06,6.89,-7.19,5.37,-21.94
1778267542.045709,1405467,-4.67,2.99,6.62,-7.55,8.96,-18.57
1778267542.0472608,1405489,-4.62,3.05,6.72,-3.05,15.89,-17.98
1778267542.117197,1405511,-4.43,2.79,6.90,-1.53,28.59,-17.39
1778267542.1195393,1405533,-4.39,3.23,6.75,2.05,42.27,-21.00
1778267542.1206136,1405555,-4.50,3.27,6.63,5.40,58.94,-24.89
1778267542.1671224,1405577,-4.44,3.43,6.60,4.28,80.93,-36.93
1778267542.1685753,1405599,-4.29,2.80,6.89,0.47,109.31,-43.69
1778267542.1697066,1405621,-4.84,3.37,6.31,-0.82,150.37,-56.24
1778267542.2255297,1405643,-4.85,4.57,5.58,-16.76,206.10,-87.98
1778267542.2270334,1405665,-4.85,4.37,6.07,-51.40,250.13,-139.31
1778267542.228241,1405687,-7.02,6.91,5.64,-109.02,250.13,-208.46
1778267542.2865515,1405709,-12.82,6.52,7.98,-193.66,250.13,-250.14
1778267542.2881558,1405731,-19.62,3.53,13.04,-164.90,250.13,-250.14
1778267542.3455884,1405753,-19.62,4.45,14.43,-175.63,250.13,-250.14
1778267542.405949,1405775,-19.62,14.69,15.35,-153.36,223.76,-250.14
1778267542.4071267,1405797,-7.56,19.51,19.62,-83.37,113.76,-173.04
1778267542.4083707,1405819,-18.88,6.65,17.74,-6.88,56.73,-43.56
1778267542.4090016,1405841,-5.22,11.31,11.39,114.31,-114.53,133.27
1778267542.409712,1405863,-2.51,6.40,5.81,89.14,-186.02,163.32
1778267542.4660027,1405885,-1.49,2.68,2.72,85.76,-212.75,148.62
1778267542.4678621,1405907,-2.22,0.91,3.36,129.02,-216.95,143.43
1778267542.4687428,1405929,-3.93,2.76,4.51,178.76,-217.10,162.32
1778267542.526208,1405951,-6.11,4.77,5.31,173.53,-228.80,186.98
1778267542.5275788,1405973,-6.51,3.40,5.88,159.18,-229.25,203.02
1778267542.5858562,1405995,-8.74,1.88,7.70,197.08,-218.79,214.68
1778267542.5873163,1406017,-10.72,2.84,9.44,235.76,-210.36,222.51
1778267542.5882885,1406039,-14.09,5.04,10.62,238.56,-207.19,227.53
1778267542.6459756,1406061,-15.40,5.53,9.73,205.07,-180.37,250.13
1778267542.6478195,1406083,-19.31,3.06,10.08,183.95,-114.74,250.13
1778267542.6485558,1406105,-19.62,-0.99,11.10,188.56,-74.97,250.13
1778267542.7061024,1406127,-19.62,-9.03,7.97,186.82,-75.60,250.13
1778267542.7072413,1406149,-19.62,-19.62,-0.58,182.50,-40.49,199.72
1778267542.76796,1406171,-19.62,-19.62,-6.32,189.55,87.18,142.44
1778267542.8260524,1406193,-19.62,-11.07,-5.72,-35.01,84.21,-25.31
1778267542.827433,1406215,-5.59,19.62,8.92,-250.14,130.91,-194.16
1778267542.8285127,1406237,-7.01,-8.76,2.35,-250.14,-1.19,-250.14
1778267542.8290868,1406259,-12.76,-7.01,19.62,-223.40,38.40,-187.02
1778267542.8298075,1406281,-13.81,10.03,6.27,-167.39,-44.95,-72.39
1778267542.886902,1406303,-3.62,-2.23,7.53,-137.90,-51.51,-50.33
1778267542.8883615,1406325,-5.53,4.39,6.18,-116.06,-36.11,-32.49
1778267542.8893642,1406347,-5.10,2.75,8.03,-54.15,-20.56,-24.64
1778267542.948063,1406369,-4.82,2.64,7.98,-20.08,-8.70,-10.56
1778267542.9500287,1406391,-4.39,3.45,6.75,-5.64,0.01,-1.09
1778267543.0060918,1406413,-4.30,3.54,6.76,-2.52,2.80,-1.09
1778267543.0084717,1406435,-4.21,3.89,6.37,-5.57,3.17,-4.94
1778267543.0093994,1406457,-4.28,4.15,6.35,-13.50,2.28,-10.89
1778267543.0661423,1406479,-4.45,3.65,6.64,-16.85,1.49,-15.19
1778267543.0683687,1406501,-4.45,3.21,6.82,-14.34,1.86,-17.31
1778267543.069745,1406523,-4.60,3.41,6.83,-11.47,2.57,-17.48
1778267543.1257238,1406545,-4.68,3.19,6.77,-7.52,7.05,-18.90
1778267543.1272597,1406567,-4.50,3.08,6.90,-3.34,11.45,-20.44
1778267543.128346,1406589,-4.69,3.21,6.58,-2.18,14.08,-24.82
1778267543.1864905,1406611,-4.87,3.33,6.74,-3.95,14.34,-24.62
1778267543.245845,1406633,-4.92,3.44,6.86,-5.63,19.26,-18.70
1778267543.247334,1406655,-4.50,2.86,6.66,1.46,31.24,-18.44
1778267543.2485013,1406677,-4.42,2.93,6.90,3.38,45.79,-21.73
1778267543.2498753,1406699,-4.65,3.15,6.56,5.08,60.40,-24.66
1778267543.3062599,1406721,-4.30,3.11,6.70,4.85,81.79,-33.44
1778267543.3077922,1406743,-4.48,3.01,7.00,1.27,111.56,-40.72
1778267543.3089528,1406765,-4.72,3.46,5.88,-1.89,153.77,-56.71
1778267543.36871,1406787,-4.57,4.92,6.20,-23.34,207.25,-91.71
1778267543.3737123,1406809,-4.27,3.37,5.77,-50.06,250.13,-144.67
1778267543.4298182,1406831,-6.88,7.56,4.17,-124.24,250.13,-230.43
1778267543.4321194,1406853,-15.70,4.87,9.96,-184.13,250.13,-250.14
1778267543.4341457,1406875,-19.62,4.05,8.61,-159.60,250.13,-250.14
1778267543.486391,1406897,-19.62,8.27,14.95,-131.87,250.13,-250.14
1778267543.4876165,1406919,-19.62,17.73,19.62,-75.00,176.82,-248.53
1778267543.4884188,1406941,-4.25,19.62,-19.62,-69.97,45.20,-124.00
1778267543.5463119,1406963,0.11,9.83,17.96,-4.63,-119.18,24.66
1778267543.5480266,1406985,2.58,6.44,1.62,12.72,-158.87,75.05
1778267543.5493658,1407007,2.71,1.73,-0.55,56.15,-151.17,41.95
1778267543.6663687,1407029,-0.46,4.12,2.52,116.40,-139.67,43.36
1778267543.6689174,1407051,-4.75,7.81,5.82,150.85,-164.43,99.07
1778267543.669909,1407073,-5.89,7.36,5.40,141.19,-199.48,156.96
1778267543.6708,1407095,-5.53,5.08,3.76,118.63,-208.40,187.84
1778267543.6717272,1407117,-6.56,3.62,4.44,138.07,-195.95,204.96
1778267543.7262342,1407139,-10.38,4.33,7.64,178.50,-194.59,225.61
1778267543.727974,1407161,-12.55,3.92,8.86,207.21,-203.56,241.31
1778267543.7293153,1407183,-14.37,4.77,9.58,230.12,-198.44,241.82
1778267543.7871764,1407205,-17.80,4.44,9.56,228.28,-163.66,250.13
1778267543.7888854,1407227,-19.62,3.84,9.34,199.91,-116.40,250.13
1778267543.789964,1407249,-19.62,-2.39,9.93,202.61,-70.31,250.13
1778267543.8465059,1407271,-19.62,-9.74,7.68,230.57,-40.30,250.13
1778267543.8482187,1407293,-19.62,-16.55,-0.07,225.16,20.36,220.69
1778267543.907168,1407315,-19.62,-19.62,-2.19,156.23,111.61,167.20
1778267543.9086552,1407337,-19.62,-14.66,-2.84,-7.04,117.88,40.34
1778267543.9099612,1407359,3.09,19.62,15.63,-250.14,123.76,-147.66
1778267543.9703922,1407381,-1.09,-7.73,19.60,-250.14,14.72,-250.14
1778267543.973023,1407403,-18.64,-7.76,19.62,-184.26,3.62,-212.46
1778267543.9745312,1407425,-15.32,15.89,-9.22,-195.18,-24.11,-71.02
1778267544.0273867,1407447,-4.46,-1.46,14.21,-137.89,-37.47,-50.40
1778267544.0292032,1407469,-4.40,4.37,6.74,-130.91,-42.53,-37.98
1778267544.0863676,1407491,-5.18,2.69,7.69,-86.65,-30.63,-33.37
1778267544.0877512,1407513,-5.17,2.30,8.83,-30.24,-14.74,-15.46
1778267544.0887487,1407535,-4.67,3.35,6.96,-15.49,-2.56,-4.85
1778267544.1451566,1407557,-4.32,3.59,6.61,-10.40,1.74,-3.53
1778267544.1464067,1407579,-4.32,3.28,6.93,-6.41,4.35,-4.58
1778267544.14713,1407601,-4.35,3.76,6.45,-6.94,6.04,-7.73
1778267544.2072847,1407623,-4.42,3.59,6.63,-8.86,3.77,-12.04
1778267544.2086442,1407645,-4.62,3.17,6.81,-7.35,1.66,-15.29
1778267544.20944,1407667,-4.70,3.34,6.65,-7.35,1.79,-18.82
1778267544.2661726,1407689,-4.53,3.44,6.65,-7.22,2.08,-19.08
1778267544.2680964,1407711,-4.61,3.21,6.58,-6.67,7.79,-17.67
1778267544.3273451,1407733,-4.79,2.98,6.88,-5.72,12.15,-16.33
1778267544.3292007,1407755,-4.59,2.82,7.03,-3.79,15.76,-14.95
1778267544.3303678,1407777,-4.69,2.86,6.95,-0.07,20.79,-13.90
1778267544.386394,1407799,-4.62,2.99,6.67,1.34,30.80,-16.37
1778267544.3877308,1407821,-4.46,2.83,6.82,1.36,44.66,-20.94
1778267544.3892605,1407843,-4.42,3.21,6.97,2.60,60.81,-26.84
1778267544.4461777,1407865,-4.52,3.10,6.59,0.65,80.94,-36.02
1778267544.4476287,1407887,-4.47,2.58,6.76,-0.85,106.44,-41.44
1778267544.4492457,1407909,-4.80,3.54,6.16,-2.63,143.47,-56.23
1778267544.5071433,1407931,-5.52,4.56,5.88,-28.92,187.84,-86.30
1778267544.5090559,1407953,-4.16,2.92,5.78,-49.84,247.79,-133.12
1778267544.5674465,1407975,-7.00,7.48,5.27,-106.51,250.13,-202.32
1778267544.5715163,1407997,-12.53,4.90,8.15,-173.47,250.13,-250.14
1778267544.573086,1408019,-19.62,5.04,12.68,-159.39,250.13,-250.14
1778267544.6264198,1408041,-19.62,5.93,16.22,-190.34,250.13,-250.14
1778267544.6280131,1408063,-18.99,13.75,16.05,-153.34,191.85,-250.14
1778267544.6300375,1408085,7.11,17.71,18.74,-54.76,-7.19,-106.39
1778267544.6861217,1408107,-17.28,19.18,19.62,26.28,-61.01,0.81
1778267544.6878316,1408129,-0.55,9.50,5.55,86.07,-110.38,85.67
1778267544.7475476,1408151,-0.02,5.71,3.98,57.95,-143.61,80.21
1778267544.7495632,1408173,0.03,3.76,2.72,69.48,-154.01,80.40
1778267544.7518775,1408195,-2.13,4.40,4.47,111.46,-162.48,106.61
1778267544.806244,1408217,-4.47,5.60,5.49,131.06,-189.95,150.91
1778267544.8080857,1408239,-5.30,4.40,5.14,131.53,-211.42,181.73
1778267544.8094,1408261,-6.43,3.40,5.99,153.01,-214.89,199.41
1778267544.8683228,1408283,-8.86,2.46,7.72,184.73,-219.08,205.61
1778267544.8706477,1408305,-11.06,2.53,8.88,219.83,-217.91,206.68
1778267544.8717775,1408327,-13.18,3.73,9.82,247.96,-209.59,211.20
1778267544.9265912,1408349,-15.70,5.91,8.90,232.57,-188.95,230.32
1778267544.928417,1408371,-17.74,1.35,7.88,205.89,-134.22,250.13
1778267544.9864054,1408393,-19.62,0.01,11.07,210.36,-80.43,250.13
1778267544.9884677,1408415,-19.62,-6.56,8.75,238.27,-49.44,250.13
1778267544.9894347,1408437,-19.62,-12.50,3.80,224.20,0.54,234.40
1778267545.046884,1408459,-19.20,-18.80,-0.76,159.47,75.31,183.10
1778267545.0487905,1408481,-19.62,-19.62,-2.16,89.48,124.63,113.56
1778267545.0502543,1408503,-17.48,-10.24,-1.04,-96.76,89.23,-45.00
1778267545.106299,1408525,-5.39,19.62,2.16,-250.14,32.01,-236.74
1778267545.108342,1408547,-12.12,1.71,4.57,-250.14,13.58,-237.36
1778267545.109963,1408569,-15.76,5.87,12.12,-218.68,-69.98,-147.83
1778267545.1661935,1408591,-7.60,2.24,9.46,-144.74,-24.96,-55.15
1778267545.167962,1408613,-5.98,6.50,5.24,-109.70,-36.34,-37.35
1778267545.2262828,1408635,-5.17,2.97,8.24,-98.40,-35.13,-33.57
1778267545.2276158,1408657,-4.51,2.95,8.06,-63.60,-22.79,-25.93
1778267545.2287104,1408679,-4.88,3.05,7.38,-26.40,-11.23,-12.58
1778267545.2863503,1408701,-4.43,3.74,6.68,-11.23,-3.23,-3.72
1778267545.2883236,1408723,-4.34,3.65,6.87,-8.70,-0.20,-2.50
1778267545.347331,1408745,-4.18,3.59,6.71,-8.92,2.15,-5.68
1778267545.3497033,1408767,-4.32,3.95,6.25,-14.35,2.18,-10.26
1778267545.351368,1408789,-4.33,3.62,6.49,-15.37,1.66,-11.40
1778267545.4078717,1408811,-4.36,3.46,6.76,-11.66,2.10,-12.24
1778267545.4105062,1408833,-4.40,3.34,6.96,-10.08,1.97,-12.85
1778267545.4126806,1408855,-4.73,3.45,6.76,-9.34,2.67,-13.61
1778267545.466157,1408877,-4.57,3.08,6.91,-6.91,6.79,-13.89
1778267545.4676425,1408899,-4.58,3.20,6.85,-4.24,8.42,-12.80
1778267545.4685843,1408921,-4.60,3.18,6.85,-2.82,10.32,-14.40
1778267545.5262084,1408943,-4.45,3.36,6.57,-1.40,14.56,-17.21
1778267545.5281553,1408965,-4.48,3.19,6.91,0.05,21.60,-17.48
1778267545.5296006,1408987,-4.39,3.14,6.69,3.31,33.56,-18.82
1778267545.5866456,1409009,-4.32,3.40,6.68,6.81,50.03,-25.87
1778267545.5885324,1409031,-4.32,3.01,7.02,6.35,72.52,-32.58
1778267545.646576,1409053,-4.26,2.93,6.87,5.71,100.87,-41.66
1778267545.6494434,1409075,-4.57,4.02,5.54,-3.36,138.24,-63.05
1778267545.6569004,1409097,-4.45,4.33,5.99,-23.73,190.85,-92.54
1778267545.7060957,1409119,-4.04,2.93,6.82,-41.98,250.13,-134.46
1778267545.8254607,1409141,-5.74,6.05,4.79,-93.92,250.13,-198.52
1778267545.8273525,1409163,-11.84,5.13,8.53,-158.93,250.13,-250.14
1778267545.8287885,1409185,-19.62,4.81,13.34,-134.16,250.13,-250.14
1778267545.8298268,1409207,-19.62,6.78,13.90,-150.53,250.13,-250.14
1778267545.8308709,1409229,-19.59,10.69,14.64,-84.84,244.06,-250.14
1778267545.8320735,1409251,3.01,16.71,18.12,-0.97,45.94,-103.27
1778267545.8331532,1409273,-19.62,7.41,19.62,38.53,-39.52,-8.08
1778267545.886475,1409295,-0.98,11.03,7.02,47.67,-117.76,79.53
1778267545.8881996,1409317,0.70,4.92,3.21,22.30,-155.71,69.32
1778267545.8891842,1409339,0.63,2.67,2.28,56.47,-160.37,66.43
1778267545.9459677,1409361,-2.53,4.75,4.54,112.60,-170.37,94.79
1778267545.9480379,1409383,-3.84,5.75,5.18,125.66,-195.07,134.76
1778267545.949342,1409405,-5.03,4.88,4.62,120.66,-213.63,167.24
1778267546.0066433,1409427,-6.67,3.80,5.28,135.92,-221.26,190.99
1778267546.0090165,1409449,-8.17,3.63,6.17,154.47,-227.21,199.40
1778267546.0664,1409471,-10.13,4.23,7.23,173.99,-227.21,200.81
1778267546.0688689,1409493,-13.00,4.51,9.23,212.49,-215.16,214.70
1778267546.0706608,1409515,-16.99,5.55,10.31,236.38,-202.00,227.60
1778267546.1257138,1409537,-19.62,4.16,9.26,240.59,-157.39,248.58
1778267546.1270883,1409559,-19.62,-0.98,9.09,245.18,-94.31,250.13
1778267546.1279907,1409581,-19.62,-9.65,7.82,250.13,-41.68,228.94
1778267546.1862102,1409603,-19.62,-13.73,5.31,250.13,13.59,198.79
1778267546.1876833,1409625,-19.62,-19.62,0.03,188.09,58.06,172.47
1778267546.1886668,1409647,-19.62,-19.01,-3.84,32.32,86.69,65.16
1778267546.245785,1409669,3.94,15.74,-5.25,-250.14,110.60,-182.95
1778267546.246679,1409691,-1.49,-11.17,14.89,-250.14,-69.17,-250.14
1778267546.3064077,1409713,-11.09,-5.07,18.05,-250.14,-16.75,-180.66
1778267546.307583,1409735,-12.07,5.04,10.17,-186.97,-31.64,-75.47
1778267546.3085887,1409757,-4.60,3.75,9.97,-109.63,-31.75,-39.79
1778267546.3655453,1409779,-5.44,3.51,5.19,-110.95,-36.50,-36.65
1778267546.3670895,1409801,-5.17,3.21,7.59,-74.95,-26.98,-29.66
1778267546.3680189,1409823,-4.65,2.10,8.50,-36.02,-15.09,-16.89
1778267546.4291794,1409845,-4.76,3.41,7.01,-17.05,-5.02,-5.87
1778267546.4858644,1409867,-4.55,3.72,6.62,-11.43,-0.31,-2.22
1778267546.4877622,1409889,-4.34,3.48,6.81,-8.58,2.72,-3.49
1778267546.4890118,1409911,-4.25,3.88,6.44,-10.39,3.53,-5.75
1778267546.489921,1409933,-4.46,3.52,6.61,-13.20,4.13,-9.42
1778267546.5459845,1409955,-4.37,3.35,6.85,-12.39,4.46,-11.81
1778267546.5474422,1409977,-4.56,3.31,6.84,-11.05,4.41,-13.74
1778267546.5492625,1409999,-4.60,3.42,6.69,-9.55,4.66,-13.73
1778267546.6063135,1410021,-4.66,3.19,6.84,-7.72,7.66,-14.51
1778267546.6077874,1410043,-4.70,3.23,6.77,-5.35,10.92,-14.96
1778267546.6089842,1410065,-4.45,3.20,6.64,-4.35,14.23,-16.37
1778267546.6667564,1410087,-4.51,2.86,6.45,0.27,19.21,-16.43
1778267546.6680024,1410109,-4.56,3.13,6.81,2.31,26.67,-17.34
1778267546.726693,1410131,-4.59,2.99,6.49,8.19,41.67,-20.04
1778267546.728437,1410153,-4.30,3.02,6.79,12.56,58.26,-26.52
1778267546.7295668,1410175,-4.46,3.04,6.65,12.96,78.79,-36.04
1778267546.7859683,1410197,-4.51,3.09,7.04,10.34,104.79,-42.99
1778267546.787804,1410219,-4.64,3.14,6.32,4.08,137.44,-54.39
1778267546.7889075,1410241,-4.56,4.17,5.90,-12.61,179.83,-79.17
1778267546.845737,1410263,-4.77,4.15,5.85,-32.02,240.91,-122.65
1778267546.847366,1410285,-6.06,7.01,5.25,-80.89,250.13,-183.17
1778267546.8496728,1410307,-10.45,6.08,6.88,-159.21,250.13,-250.14
1778267546.9064968,1410329,-19.62,3.62,14.76,-136.60,250.13,-250.14
1778267546.908135,1410351,-19.62,4.57,6.95,-144.33,250.13,-250.14
1778267546.966502,1410373,-19.62,12.15,14.66,-152.74,240.51,-250.14
1778267546.9684236,1410395,-15.06,14.59,19.62,-63.97,125.67,-168.30
1778267546.96965,1410417,-19.62,6.03,12.67,62.29,56.96,-53.56
1778267547.026039,1410439,-0.40,11.29,9.27,137.74,-100.98,78.68
1778267547.0278618,1410461,-1.64,8.01,5.17,69.37,-171.82,100.62
1778267547.0292387,1410483,-0.17,3.64,2.41,60.45,-193.67,102.85
1778267547.0872307,1410505,-0.74,2.35,3.11,98.84,-183.86,115.25
1778267547.0890248,1410527,-4.06,5.36,5.30,139.49,-190.66,152.03
1778267547.0902076,1410549,-5.63,4.82,5.91,138.32,-214.81,186.36
1778267547.146059,1410571,-6.89,3.84,5.95,133.93,-228.24,201.26
1778267547.1474028,1410593,-8.98,2.28,7.32,166.94,-236.12,209.98
1778267547.2061567,1410615,-10.18,2.36,7.92,201.43,-233.69,205.24
1778267547.2083752,1410637,-12.93,4.08,9.18,230.04,-226.21,205.47
1778267547.2097101,1410659,-16.15,5.97,9.19,224.54,-213.54,222.09
1778267547.2667637,1410681,-19.36,4.16,8.57,208.93,-162.30,234.11
1778267547.2684333,1410703,-19.62,-1.65,10.15,242.05,-98.52,240.91
1778267547.2703557,1410725,-19.62,-8.61,8.30,250.13,-45.15,236.15
1778267547.3258135,1410747,-19.62,-12.75,5.95,250.13,13.18,202.00
1778267547.386999,1410769,-19.62,-19.62,0.23,137.31,31.04,145.30
1778267547.389636,1410791,-19.62,-19.62,-2.59,39.99,52.82,41.05
1778267547.3909497,1410813,-0.80,6.95,-0.02,-250.14,104.51,-250.14
1778267547.3919685,1410835,-10.03,-5.75,19.62,-250.14,-67.11,-250.14
1778267547.4460192,1410857,-13.12,3.67,19.62,-250.14,-80.95,-156.68
1778267547.4480608,1410879,-7.35,-0.04,13.11,-158.18,-37.68,-53.28
1778267547.4492242,1410901,-5.53,5.12,7.55,-88.67,-30.34,-25.04
1778267547.5058267,1410923,-5.01,3.91,6.87,-93.38,-27.87,-23.84
1778267547.5076008,1410945,-4.79,2.91,7.98,-65.58,-22.40,-20.18
1778267547.508902,1410967,-4.46,2.35,7.96,-28.23,-9.11,-9.22
1778267547.5663373,1410989,-4.58,3.36,6.99,-13.56,0.59,-2.62
1778267547.568053,1411011,-4.37,3.56,6.68,-9.03,3.35,-0.50
1778267547.6263132,1411033,-4.13,3.39,6.89,-5.67,6.13,-1.85
1778267547.6283362,1411055,-4.25,3.71,6.67,-4.06,7.60,-3.45
1778267547.6300068,1411077,-4.28,3.77,6.52,-9.44,6.62,-8.89
1778267547.6857567,1411099,-4.43,3.51,6.84,-10.56,5.10,-14.34
1778267547.6877227,1411121,-4.39,3.29,6.78,-9.12,5.24,-16.08
1778267547.6889777,1411143,-4.41,3.47,6.73,-5.98,7.92,-18.27
1778267547.7465322,1411165,-4.49,3.32,6.60,-4.65,10.21,-21.75
1778267547.7482064,1411187,-4.35,3.18,6.81,-4.11,14.32,-22.44
1778267547.7498782,1411209,-4.55,3.02,7.15,-1.40,16.89,-19.90
1778267547.8073406,1411231,-4.52,2.99,6.99,2.02,24.86,-18.49
1778267547.808943,1411253,-4.56,3.11,6.81,3.44,30.82,-18.31
1778267547.8659265,1411275,-4.54,2.79,6.53,5.48,41.86,-21.89
1778267547.8679206,1411297,-4.70,2.97,6.94,6.33,51.54,-21.85
1778267547.8690507,1411319,-4.79,3.26,6.58,6.56,66.14,-28.60
1778267547.9258397,1411341,-4.68,3.25,6.67,3.21,87.75,-37.82
1778267547.9277267,1411363,-4.76,2.58,6.58,0.71,118.25,-48.85
1778267547.9289024,1411385,-4.32,3.53,6.54,-4.47,160.34,-64.89
1778267547.9863927,1411407,-4.82,4.00,6.20,-19.46,221.50,-103.58
1778267547.9877634,1411429,-5.68,4.94,6.72,-56.92,250.13,-154.81
1778267548.0460458,1411451,-8.05,7.01,7.53,-137.61,250.13,-250.14
1778267548.0483003,1411473,-18.73,3.74,12.49,-151.33,250.13,-250.14
1778267548.0497816,1411495,-19.62,2.24,8.29,-149.11,250.13,-250.14
1778267548.1068654,1411517,-19.62,10.49,15.15,-128.39,240.86,-250.14
1778267548.1087546,1411539,-19.62,16.03,19.62,-88.55,90.20,-191.09
1778267548.1107068,1411561,-16.29,8.93,17.45,-11.46,37.19,-106.88
1778267548.16641,1411583,1.64,10.19,9.15,136.19,-87.53,15.55
1778267548.16834,1411605,1.80,7.76,2.37,108.43,-121.47,42.23
1778267548.16961,1411627,1.61,6.23,2.15,94.56,-121.95,57.68
1778267548.2266047,1411649,-0.97,5.94,4.86,102.67,-127.64,100.39
1778267548.2285004,1411671,-3.14,6.02,6.70,106.72,-162.60,155.50
1778267548.286373,1411693,-2.93,2.88,6.26,116.03,-188.40,186.37
1778267548.28821,1411715,-4.02,0.78,6.82,146.77,-195.13,189.75
1778267548.289485,1411737,-6.62,1.35,8.69,187.08,-206.62,185.05
1778267548.3462055,1411759,-9.07,2.47,9.87,208.26,-228.76,178.34
1778267548.3479085,1411781,-11.15,3.02,9.98,233.50,-233.04,185.77
1778267548.3494475,1411803,-14.02,4.37,10.68,250.13,-231.73,199.66
1778267548.4066098,1411825,-16.67,4.20,10.16,237.95,-197.22,212.57
1778267548.4084027,1411847,-19.62,0.86,11.47,241.16,-136.19,225.92
1778267548.4096603,1411869,-19.62,-5.30,10.97,250.13,-91.24,223.11
1778267548.4663231,1411891,-19.62,-11.68,7.85,250.13,-40.29,213.66
1778267548.4678075,1411913,-19.62,-15.03,-2.29,219.08,21.57,189.69
1778267548.5253787,1411935,-19.62,-19.62,-3.32,131.08,85.31,149.22
1778267548.5266056,1411957,-1.56,-4.82,-4.62,-3.46,104.06,-44.11
1778267548.5285404,1411979,-7.77,19.62,3.00,-250.14,-9.98,-243.40
1778267548.5854135,1412001,-4.63,-10.09,19.62,-250.14,-23.23,-207.93
1778267548.586486,1412023,-12.36,5.08,17.12,-211.06,-10.14,-160.19
1778267548.5875437,1412045,-10.17,0.97,12.17,-150.15,-24.58,-60.73
1778267548.6448689,1412067,-5.48,4.27,6.85,-125.73,-35.76,-42.81
1778267548.6461325,1412089,-5.07,2.19,8.07,-102.54,-34.44,-33.73
1778267548.705617,1412111,-4.87,2.40,8.27,-62.47,-21.75,-24.44
1778267548.7078068,1412133,-5.04,3.39,7.34,-24.44,-9.32,-10.86
1778267548.7092838,1412155,-4.65,3.66,6.69,-11.46,-3.35,-3.63
1778267548.7656517,1412177,-4.20,3.85,6.53,-8.39,-1.34,-3.75
1778267548.767373,1412199,-4.25,3.96,6.54,-13.49,-1.13,-8.60
1778267548.7681916,1412221,-4.27,4.13,6.16,-20.89,-1.21,-13.69
1778267548.826211,1412243,-4.53,3.70,6.71,-20.70,-1.45,-14.94
1778267548.8276408,1412265,-4.43,3.39,6.99,-16.88,-0.19,-15.94
1778267548.8284502,1412287,-4.46,3.28,6.80,-14.37,0.67,-17.21
1778267548.8852062,1412309,-4.57,3.22,7.00,-11.90,3.09,-16.15
1778267548.8864453,1412331,-4.41,3.34,6.89,-7.39,7.11,-14.85
1778267548.9458065,1412353,-4.44,3.17,6.88,-4.44,11.52,-16.41
1778267548.9474652,1412375,-4.58,3.06,6.86,-3.41,14.88,-17.29
1778267548.9484305,1412397,-4.58,2.88,6.90,-0.76,18.56,-16.78
1778267549.0073867,1412419,-4.23,3.23,6.62,1.50,25.52,-17.53
1778267549.0092523,1412441,-4.67,2.91,6.53,2.75,35.55,-19.86
1778267549.0105078,1412463,-4.64,3.21,6.48,1.47,48.10,-25.51
1778267549.0665767,1412485,-4.37,3.34,6.63,0.63,63.25,-30.60
1778267549.0682445,1412507,-4.51,2.93,6.62,-1.47,85.76,-36.22
1778267549.0694964,1412529,-4.57,2.88,6.60,-2.31,116.46,-47.60
1778267549.128567,1412551,-4.31,4.28,5.96,-11.53,169.11,-73.05
1778267549.1301503,1412573,-4.15,3.64,6.40,-32.23,237.18,-113.78
1778267549.1866503,1412595,-4.73,5.75,5.86,-59.27,250.13,-170.32
1778267549.1882813,1412617,-9.23,7.56,8.77,-141.43,250.13,-250.14
1778267549.1893418,1412639,-19.62,6.60,14.65,-128.52,250.13,-250.14
1778267549.246033,1412661,-19.62,7.76,13.03,-101.57,250.13,-250.14
1778267549.2479775,1412683,-19.62,14.58,18.84,-42.44,166.26,-244.28
1778267549.3062868,1412705,17.04,13.51,16.47,-49.81,-34.24,-122.64
1778267549.3081448,1412727,-0.82,7.94,14.42,89.28,-70.82,-47.82
1778267549.3101368,1412749,2.54,8.73,2.23,94.46,-115.81,-5.27
1778267549.3663385,1412771,1.63,8.47,3.30,79.23,-138.77,2.60
1778267549.3680687,1412793,-0.87,7.62,4.06,90.81,-162.88,44.91
1778267549.3687468,1412815,-1.37,6.55,3.45,111.18,-172.76,95.21
1778267549.426406,1412837,-2.82,5.98,4.12,120.93,-176.78,135.35
1778267549.4281542,1412859,-4.67,4.60,5.31,140.50,-182.50,166.34
1778267549.4292483,1412881,-5.80,3.62,6.22,165.54,-186.31,179.32
1778267549.485759,1412903,-8.51,3.14,8.25,198.05,-186.40,177.16
1778267549.4873066,1412925,-12.00,3.31,10.27,237.25,-189.56,179.63
1778267549.4885857,1412947,-13.93,4.60,10.75,250.13,-190.73,191.19
1778267549.5471344,1412969,-15.40,6.61,10.15,250.13,-155.01,228.21
1778267549.5492718,1412991,-19.62,4.72,12.04,213.34,-93.66,250.13
1778267549.6082873,1413013,-19.62,-1.98,12.48,197.05,-69.82,250.13
1778267549.6098504,1413035,-19.62,-9.60,7.87,186.44,-61.11,250.13
1778267549.6110566,1413057,-19.33,-19.62,1.86,151.07,-15.24,192.50
1778267549.6672451,1413079,-17.24,-19.62,-1.75,100.04,65.51,120.53
1778267549.6690378,1413101,-7.16,2.83,-14.40,-176.06,242.47,-15.54
1778267549.6705346,1413123,-3.96,0.58,1.43,-250.14,126.83,-241.23
1778267549.727611,1413145,-17.26,-12.55,19.62,-249.40,20.96,-180.20
1778267549.7294145,1413167,-11.35,3.48,19.62,-165.60,3.26,-132.73
1778267549.7305584,1413189,-9.35,1.96,10.81,-111.86,-15.81,-40.82
1778267549.7861152,1413211,-6.40,5.78,7.20,-83.51,-30.50,-35.04
1778267549.787982,1413233,-5.16,4.42,6.54,-94.63,-38.08,-37.29
1778267549.8457108,1413255,-4.45,2.26,8.67,-67.63,-31.15,-29.11
1778267549.8471544,1413277,-4.75,3.69,6.89,-20.85,-15.98,-16.01
1778267549.8480818,1413299,-4.78,3.54,7.09,-11.41,-9.14,-9.47
1778267549.9084973,1413321,-4.33,3.61,6.84,-10.34,-5.74,-9.03
1778267549.9101377,1413343,-4.14,3.73,6.71,-12.18,-2.69,-7.95
1778267549.9113293,1413365,-4.16,3.91,6.44,-15.29,-1.78,-9.43
1778267549.96608,1413387,-4.41,3.62,6.71,-18.76,-2.45,-13.99
1778267549.9683259,1413409,-4.55,3.49,6.67,-16.26,0.05,-15.88
1778267550.0267935,1413431,-4.41,3.33,6.87,-12.62,3.55,-16.62
1778267550.0283694,1413453,-4.43,3.53,6.79,-11.97,7.79,-17.39
1778267550.0298176,1413475,-4.40,3.07,6.79,-12.00,12.57,-19.80
1778267550.0864367,1413497,-4.49,3.11,7.00,-9.24,17.65,-19.95
1778267550.088297,1413519,-4.50,3.07,6.71,-6.89,20.82,-19.73
1778267550.0893679,1413541,-4.08,3.06,6.73,-7.27,28.95,-22.29
1778267550.1461864,1413563,-4.38,2.75,7.09,-6.82,41.46,-26.97
1778267550.1476593,1413585,-4.23,2.64,6.98,-5.11,56.81,-26.53
1778267550.1485524,1413607,-4.41,2.89,6.80,-4.88,78.56,-32.63
1778267550.2057755,1413629,-4.28,2.29,6.93,-2.98,103.13,-34.98
1778267550.2074027,1413651,-4.41,2.71,6.54,1.17,140.76,-45.02
1778267550.2678182,1413673,-4.47,5.41,6.39,-30.16,190.58,-70.81
1778267550.2703154,1413695,-3.72,3.97,5.44,-39.84,250.13,-129.78
1778267550.2712257,1413717,-7.00,6.87,5.50,-92.14,250.13,-213.04
1778267550.325751,1413739,-14.91,4.23,12.90,-157.08,250.13,-250.14
1778267550.327542,1413761,-19.62,9.25,16.73,-137.24,250.13,-250.14
1778267550.3286126,1413783,-19.62,16.58,19.62,-27.03,120.69,-223.56
1778267550.3866587,1413805,11.36,19.62,4.13,-104.54,-42.69,-109.55
1778267550.38847,1413827,4.13,14.67,10.48,-20.07,-67.73,-42.16
1778267550.3896394,1413849,3.15,9.98,5.59,76.22,-77.20,-6.11
1778267550.4461303,1413871,1.29,9.04,5.27,81.27,-130.65,9.51
1778267550.448063,1413893,0.56,6.22,4.42,100.15,-164.27,36.94
1778267550.5144792,1413915,-0.17,4.74,4.09,144.40,-167.11,70.95
1778267550.5167866,1413937,-2.29,5.01,4.10,173.70,-158.85,102.95
1778267550.5188415,1413959,-4.31,5.75,6.01,180.55,-158.69,134.85
1778267550.5663931,1413981,-4.94,4.18,6.44,189.56,-151.81,158.13
1778267550.5684588,1414003,-7.54,4.03,9.13,215.80,-134.92,174.11
1778267550.569657,1414025,-10.75,5.27,10.46,237.80,-137.81,197.84
1778267550.6256912,1414047,-12.01,7.07,11.37,219.71,-143.12,218.85
1778267550.6271822,1414069,-14.44,7.13,12.00,199.72,-117.88,250.13
1778267550.686916,1414091,-19.33,4.25,13.30,190.79,-84.30,250.13
1778267550.688638,1414113,-19.62,-0.72,12.63,185.29,-82.21,250.13
1778267550.6894598,1414135,-19.62,-5.93,8.81,161.47,-76.46,242.53
1778267550.7461336,1414157,-19.62,-15.16,2.20,138.91,-38.55,165.96
1778267550.7478557,1414179,-19.62,-19.62,-2.86,163.29,46.46,94.61
1778267550.749002,1414201,-19.62,-13.45,0.58,19.95,72.65,22.59
1778267550.8065968,1414223,-5.99,17.66,19.62,-250.14,84.76,-156.63
1778267550.8084188,1414245,-8.65,4.23,12.58,-250.14,6.50,-250.14
1778267550.8100345,1414267,-10.58,-3.00,18.30,-250.14,29.11,-220.40
1778267550.8663385,1414289,-14.07,6.50,10.03,-186.21,-43.52,-89.31
1778267550.867842,1414311,-5.36,1.48,12.78,-116.01,-31.08,-39.88
1778267550.9251957,1414333,-5.19,6.48,5.53,-113.48,-35.71,-31.55
1778267550.9266193,1414355,-5.55,2.99,8.49,-63.61,-23.15,-28.12
1778267550.9276805,1414377,-4.72,2.77,6.82,-27.63,-7.73,-14.75
1778267550.986613,1414399,-4.50,3.16,7.21,-11.02,-1.11,-4.17
1778267550.9880273,1414421,-4.43,3.64,6.81,-7.15,3.05,-2.00
1778267550.9890687,1414443,-4.25,3.65,6.62,-7.44,6.11,-4.95
1778267551.045479,1414465,-4.24,3.81,6.52,-9.02,6.39,-7.46
1778267551.0466645,1414487,-4.31,3.75,6.55,-12.50,3.85,-11.16
1778267551.0475142,1414509,-4.46,3.66,6.59,-12.56,2.00,-13.63
1778267551.1083047,1414531,-4.48,3.34,6.92,-8.79,2.28,-13.54
1778267551.1096978,1414553,-4.61,3.40,6.86,-6.36,4.21,-13.02
1778267551.1654692,1414575,-4.58,3.56,6.86,-5.97,6.73,-14.76
1778267551.167075,1414597,-4.64,3.44,6.79,-4.20,10.13,-18.07
1778267551.1679304,1414619,-4.67,3.17,6.76,-3.08,11.98,-20.09
1778267551.2260957,1414641,-4.53,3.32,6.43,-3.57,11.56,-19.82
1778267551.2275634,1414663,-4.28,3.06,6.80,-1.24,18.72,-16.47
1778267551.2285275,1414685,-4.51,2.83,6.89,2.11,30.45,-17.98
1778267551.2857804,1414707,-4.30,3.14,6.70,4.98,45.27,-21.35
1778267551.287274,1414729,-4.67,3.11,6.56,7.57,64.61,-27.53
1778267551.3467174,1414751,-4.33,2.99,6.80,7.45,88.24,-36.15
1778267551.348264,1414773,-4.55,3.44,6.50,4.33,118.76,-46.59
1778267551.3493035,1414795,-4.84,3.60,6.10,-4.47,154.56,-65.06
1778267551.4062352,1414817,-4.85,4.11,5.28,-19.70,210.47,-94.60
1778267551.407756,1414839,-5.68,4.31,6.25,-47.71,250.13,-135.98
1778267551.4085243,1414861,-7.81,7.50,5.22,-119.02,250.13,-222.79
1778267551.466771,1414883,-14.45,3.55,10.36,-157.14,250.13,-250.14
1778267551.5282922,1414905,-19.62,5.28,8.80,-160.68,250.13,-250.14
1778267551.5304563,1414927,-19.62,9.88,18.49,-161.02,224.90,-250.14
1778267551.532227,1414949,-19.62,16.80,19.62,-122.02,105.77,-226.62
1778267551.534926,1414971,-17.47,11.68,2.47,-30.22,77.57,-119.50
1778267551.5873702,1414993,1.60,11.52,11.18,90.40,-77.63,33.75
1778267551.589464,1415015,2.20,8.82,2.22,58.66,-116.47,56.39
1778267551.5901737,1415037,1.04,6.51,1.36,41.94,-131.55,47.76
1778267551.646871,1415059,-1.92,5.48,4.00,66.04,-157.08,83.05
1778267551.6484592,1415081,-3.50,6.56,5.00,104.10,-178.98,135.01
1778267551.6500037,1415103,-4.57,5.41,5.02,109.52,-202.73,167.69
1778267551.7074513,1415125,-5.13,3.77,4.56,120.11,-212.00,180.37
1778267551.7089813,1415147,-7.49,3.94,6.37,153.00,-209.12,191.87
1778267551.7100658,1415169,-10.54,4.96,7.52,183.92,-213.01,206.29
1778267551.7665827,1415191,-13.33,5.30,8.54,201.37,-215.68,219.23
1778267551.768885,1415213,-15.55,7.03,8.05,211.50,-205.40,236.36
1778267551.8262558,1415235,-18.02,4.25,10.43,209.91,-160.48,250.13
1778267551.8279173,1415257,-19.62,2.17,10.00,209.85,-101.61,250.13
1778267551.8286707,1415279,-19.62,-3.62,10.82,234.69,-60.60,250.13
1778267551.8875148,1415301,-19.62,-8.67,7.68,236.51,-34.24,249.79
1778267551.8890102,1415323,-19.62,-10.21,-4.38,128.06,-16.71,199.24
1778267551.8900487,1415345,-19.62,-19.62,-2.79,132.92,110.93,153.32
1778267551.9457357,1415367,-19.62,-14.67,-0.26,-45.11,102.13,-0.90
1778267551.9477756,1415389,6.70,19.61,5.26,-250.14,153.33,-182.67
1778267552.0064366,1415411,-3.01,6.32,-3.54,-250.14,-17.73,-250.14
1778267552.0082219,1415433,-19.61,4.28,19.62,-250.14,23.21,-207.06
1778267552.0091126,1415455,-11.64,2.41,11.80,-202.88,-48.69,-65.11
1778267552.0675,1415477,-6.67,4.14,7.29,-115.63,-36.29,-37.79
1778267552.0693126,1415499,-5.32,3.59,7.46,-100.04,-31.13,-27.05
1778267552.0706027,1415521,-5.22,3.07,7.77,-61.56,-19.82,-24.36
1778267552.126485,1415543,-4.79,2.85,7.58,-28.05,-10.05,-14.37
1778267552.1283262,1415565,-4.50,3.70,6.84,-16.86,-3.39,-8.04
1778267552.1292038,1415587,-4.42,3.78,6.57,-13.79,-0.40,-7.35
1778267552.187288,1415609,-4.29,3.62,6.78,-12.51,2.09,-10.18
1778267552.1891546,1415631,-4.42,4.09,6.47,-16.98,3.19,-12.06
1778267552.2462313,1415653,-4.50,3.70,6.52,-15.47,3.92,-14.92
1778267552.2477071,1415675,-4.67,3.17,6.78,-10.44,4.49,-17.19
1778267552.2487261,1415697,-4.76,3.22,6.73,-6.49,6.76,-17.68
1778267552.3061633,1415719,-4.67,3.21,6.92,-4.39,8.00,-19.92
1778267552.3077745,1415741,-4.95,3.08,6.80,-4.73,7.31,-19.33
1778267552.3665285,1415763,-4.85,3.10,6.82,-2.97,8.44,-19.54
1778267552.3689973,1415785,-4.90,3.19,6.47,-4.25,8.34,-18.36
1778267552.3699896,1415807,-4.70,2.98,6.62,-3.49,12.95,-13.60
1778267552.371339,1415829,-4.57,3.06,6.63,-1.04,23.08,-15.92
1778267552.426087,1415851,-4.58,3.14,6.76,1.69,34.48,-20.06
1778267552.428235,1415873,-4.57,3.18,6.71,4.57,52.98,-27.72
1778267552.4873857,1415895,-4.60,3.00,6.74,3.44,75.40,-36.18
1778267552.4888692,1415917,-4.54,2.84,6.79,0.34,99.78,-39.63
1778267552.4899397,1415939,-4.52,2.95,6.16,1.34,131.85,-48.83
1778267552.5462875,1415961,-4.78,3.88,5.70,-12.34,179.04,-71.27
1778267552.5482135,1415983,-4.79,4.38,5.44,-34.53,231.06,-112.13
1778267552.5501635,1416005,-6.03,5.64,5.17,-71.98,250.13,-166.94
1778267552.6074069,1416027,-10.21,6.91,7.65,-151.24,250.13,-250.14
1778267552.6088398,1416049,-19.62,6.07,15.19,-132.18,250.13,-250.14
1778267552.6660461,1416071,-19.62,5.45,6.48,-140.69,250.13,-250.14
1778267552.6683948,1416093,-19.62,10.60,14.54,-84.50,212.70,-250.14
1778267552.669638,1416115,4.77,16.66,12.64,-43.98,24.95,-133.22
1778267552.7267237,1416137,-19.62,17.29,19.62,16.76,-52.96,-27.21
1778267552.7873483,1416159,1.49,12.38,6.37,69.44,-114.37,58.88
1778267552.7892885,1416181,1.72,7.82,3.71,43.45,-141.65,53.31
1778267552.7905462,1416203,-0.17,5.76,4.62,69.38,-152.35,72.85
1778267552.791515,1416225,-2.90,7.59,8.13,99.61,-179.67,116.56
1778267552.8474596,1416247,-5.19,6.26,6.72,112.44,-216.85,159.64
1778267552.8488472,1416269,-5.28,3.89,5.58,125.18,-238.92,186.27
1778267552.8501787,1416291,-6.00,2.36,5.71,151.00,-237.43,186.76
1778267552.9061222,1416313,-8.68,2.49,7.51,190.66,-236.60,178.44
1778267552.907507,1416335,-11.53,2.95,9.55,232.64,-233.60,179.39
1778267552.9083655,1416357,-12.18,4.49,9.61,250.13,-219.73,187.50
1778267552.9693856,1416379,-13.86,7.76,9.01,233.96,-171.55,213.76
1778267552.9719307,1416401,-18.87,5.94,11.53,204.14,-95.53,250.13
1778267552.972932,1416423,-19.62,0.46,13.40,199.18,-62.65,250.13
1778267553.0270784,1416445,-19.62,-7.32,9.91,207.82,-30.41,250.13
1778267553.0280197,1416467,-19.62,-15.70,0.93,132.01,14.67,247.34
1778267553.0287688,1416489,-19.43,-19.62,-1.70,104.15,89.93,148.76
1778267553.0863452,1416511,-13.00,-16.79,-19.62,-161.95,250.13,-52.72
1778267553.087567,1416533,-15.26,8.70,11.56,-250.14,142.39,-250.14
1778267553.1469986,1416555,-19.62,-2.63,13.84,-239.00,10.75,-221.67
1778267553.1487174,1416577,-14.92,1.59,19.62,-221.29,-40.43,-125.58
1778267553.1501415,1416599,-5.95,5.62,6.83,-127.69,-29.50,-47.57
1778267553.2051218,1416621,-5.33,3.59,9.41,-90.95,-26.08,-36.27
1778267553.206695,1416643,-4.81,4.18,6.33,-93.43,-36.06,-31.72
1778267553.2078311,1416665,-5.10,2.63,8.33,-61.40,-25.63,-25.07
1778267553.2655218,1416687,-5.01,3.52,7.13,-24.54,-10.03,-10.66
1778267553.267024,1416709,-4.59,3.63,6.73,-11.25,-1.45,-4.60
1778267553.386349,1416731,-4.51,3.86,6.43,-9.01,1.92,-4.97
1778267553.3883445,1416753,-4.22,3.65,6.65,-11.02,3.95,-5.58
1778267553.3901553,1416775,-4.37,3.85,6.58,-12.08,4.98,-8.49
1778267553.3910456,1416797,-4.59,3.64,6.62,-14.69,3.81,-13.63
1778267553.392031,1416819,-4.60,3.35,6.72,-12.15,3.83,-14.43
1778267553.3929498,1416841,-4.72,3.33,6.63,-7.70,8.32,-15.94
1778267553.445941,1416863,-4.66,3.21,6.59,-4.94,12.18,-15.24
1778267553.4474585,1416885,-4.39,3.27,6.74,-4.21,14.40,-16.15
1778267553.4491715,1416907,-4.89,3.21,6.61,-2.28,17.99,-16.83
1778267553.50748,1416929,-4.85,3.10,7.80,0.48,22.34,-13.97
1778267553.508979,1416951,-4.79,3.09,6.73,1.11,26.58,-14.24
1778267553.5653012,1416973,-4.69,3.34,6.40,2.66,34.97,-17.46
1778267553.5670922,1416995,-4.80,3.11,6.81,4.85,45.91,-22.62
1778267553.5683305,1417017,-4.36,3.31,6.29,5.81,61.98,-27.90
1778267553.6258974,1417039,-4.55,2.93,6.68,6.59,83.24,-35.32
1778267553.627875,1417061,-4.66,3.01,6.63,4.98,110.44,-41.29
1778267553.6290355,1417083,-4.78,3.30,5.98,5.78,146.15,-53.48
1778267553.6865873,1417105,-5.32,4.30,5.25,-12.49,184.01,-77.97
1778267553.6882896,1417127,-5.54,4.87,4.57,-33.18,240.78,-120.08
1778267553.689466,1417149,-6.60,6.32,5.10,-86.13,250.13,-183.41
1778267553.7456598,1417171,-10.86,6.09,7.62,-156.82,250.13,-250.14
1778267553.747481,1417193,-19.62,3.68,14.32,-146.82,250.13,-250.14
1778267553.8066583,1417215,-19.62,4.46,7.75,-132.76,250.13,-250.14
1778267553.8081565,1417237,-19.62,13.38,15.62,-136.37,224.73,-250.14
1778267553.8089106,1417259,-10.80,16.09,19.62,-60.20,91.17,-140.10
1778267553.8664393,1417281,-19.62,7.99,19.62,35.73,32.24,-44.82
1778267553.8683844,1417303,-1.79,11.52,10.33,87.56,-108.36,76.98
1778267553.8693964,1417325,-0.38,6.73,5.37,39.46,-166.40,87.68
1778267553.9259708,1417347,0.29,3.62,3.37,62.40,-179.24,91.70
1778267553.927395,1417369,-1.60,3.88,4.86,107.59,-191.09,115.38
1778267553.9861257,1417391,-3.24,5.49,5.34,115.01,-209.75,141.77
1778267553.9878466,1417413,-5.72,5.13,5.84,109.63,-232.47,170.77
1778267554.0461304,1417435,-7.22,3.88,6.32,126.78,-247.31,196.02
1778267554.0477242,1417457,-8.67,3.10,6.95,160.94,-247.33,208.60
1778267554.0490031,1417479,-10.86,2.67,7.82,198.80,-247.01,208.84
1778267554.0500438,1417501,-13.10,3.89,8.93,228.82,-238.29,208.34
1778267554.106512,1417523,-14.93,5.74,8.47,225.33,-206.06,224.93
1778267554.1077738,1417545,-19.62,4.39,9.83,215.68,-143.05,250.13
1778267554.1092465,1417567,-19.62,0.78,10.32,221.78,-100.67,250.13
1778267554.1658301,1417589,-19.62,-7.69,7.48,238.95,-62.63,250.13
1778267554.1678166,1417611,-19.62,-15.33,2.93,232.44,-6.43,248.38
1778267554.22753,1417633,-19.62,-19.62,-6.59,182.03,85.94,184.27
1778267554.2291112,1417655,-19.62,-19.62,-2.85,57.06,106.34,64.71
1778267554.2301188,1417677,7.55,19.62,19.08,-219.63,135.04,-207.21
1778267554.2857618,1417699,-6.41,-1.80,-10.76,-250.14,-62.53,-250.14
1778267554.287338,1417721,-19.62,-1.07,19.62,-222.40,78.92,-218.18
1778267554.288415,1417743,-13.52,4.36,12.69,-222.56,-52.43,-83.82
1778267554.3454986,1417765,-5.51,3.00,9.22,-125.19,-40.60,-43.21
1778267554.3467503,1417787,-5.69,5.50,5.71,-110.69,-38.85,-35.63
1778267554.3474867,1417809,-5.09,2.64,8.16,-79.76,-30.33,-33.07
1778267554.4060886,1417831,-5.05,2.66,8.11,-36.05,-14.79,-17.66
1778267554.4662132,1417853,-4.68,3.37,6.99,-16.02,-5.21,-5.96
1778267554.4678414,1417875,-4.45,3.57,6.52,-7.23,-0.04,-3.32
1778267554.4686606,1417897,-4.26,3.84,6.57,-6.21,1.31,-5.69
1778267554.4696662,1417919,-4.34,4.04,6.43,-9.44,2.54,-9.24
1778267554.5259764,1417941,-4.65,3.55,6.94,-14.16,1.21,-13.43
1778267554.527415,1417963,-4.53,3.31,6.91,-13.27,0.92,-14.78
1778267554.5284004,1417985,-4.73,3.41,6.77,-8.26,1.70,-14.98
1778267554.5856752,1418007,-4.69,3.49,6.59,-5.99,2.20,-16.46
1778267554.5917706,1418029,-4.81,3.50,6.36,-8.32,1.66,-21.97
1778267554.6457734,1418051,-4.64,3.23,6.52,-7.06,3.71,-19.88
1778267554.6469557,1418073,-4.56,3.04,6.68,-5.49,7.61,-17.95
1778267554.6481333,1418095,-4.56,2.95,6.57,-2.41,13.90,-15.26
1778267554.7063773,1418117,-4.72,3.08,6.83,-0.94,19.24,-13.85
1778267554.708064,1418139,-4.20,3.03,6.55,-1.13,29.06,-15.72
1778267554.7090082,1418161,-4.50,3.09,6.83,4.46,40.90,-17.81
1778267554.7660778,1418183,-4.64,3.03,6.65,6.91,61.40,-26.51
1778267554.7678614,1418205,-4.51,2.86,7.00,4.48,82.63,-33.42
1778267554.76895,1418227,-4.40,3.29,7.10,2.91,112.34,-42.15
1778267554.8258333,1418249,-4.57,4.08,6.20,-5.87,153.33,-62.13
1778267554.8858573,1418271,-4.94,5.39,5.73,-31.87,208.09,-105.21
1778267554.887744,1418293,-6.12,6.29,6.79,-78.08,250.13,-149.62
1778267554.8888056,1418315,-7.48,6.89,5.82,-150.66,250.13,-250.14
1778267554.8898237,1418337,-15.53,4.49,10.78,-184.58,250.13,-250.14
1778267554.9457176,1418359,-19.62,5.23,10.92,-203.30,250.13,-250.14
1778267554.94787,1418381,-19.62,11.22,17.09,-236.21,179.22,-250.14
1778267554.9489741,1418403,-18.59,17.97,19.62,-216.04,72.57,-227.59
1778267555.0056238,1418425,-14.43,8.26,8.07,-62.27,34.50,-65.79
1778267555.00712,1418447,3.53,9.68,7.40,101.53,-73.18,51.78
1778267555.0079813,1418469,2.02,8.56,1.96,54.92,-101.37,51.22
1778267555.065703,1418491,0.04,6.54,0.91,36.11,-118.06,46.64
1778267555.067352,1418513,-3.45,6.46,4.68,67.05,-148.66,92.34
1778267555.1256764,1418535,-3.66,6.36,3.78,99.96,-178.60,147.34
1778267555.1277144,1418557,-3.92,4.81,3.99,114.86,-189.24,178.09
1778267555.1289523,1418579,-5.85,4.24,4.91,126.56,-195.53,194.05
1778267555.185574,1418601,-8.06,4.17,6.09,143.76,-205.40,204.50
1778267555.1871421,1418623,-10.25,4.14,7.05,168.11,-210.05,213.34
1778267555.188561,1418645,-12.29,3.68,8.04,203.01,-200.93,222.83
1778267555.2458298,1418667,-15.58,6.26,8.73,221.39,-186.30,239.76
1778267555.2473469,1418689,-18.29,7.32,7.82,183.20,-148.09,250.13
1778267555.3061533,1418711,-19.62,1.74,8.87,171.21,-101.70,250.13
1778267555.3074496,1418733,-19.62,-3.37,8.46,209.70,-66.78,250.13
1778267555.3086994,1418755,-19.62,-8.60,4.87,241.60,-23.44,235.37
1778267555.3657389,1418777,-19.62,-10.89,1.78,224.37,38.32,204.86
1778267555.3672779,1418799,-19.62,-16.19,-2.05,143.04,94.24,161.92
1778267555.3684218,1418821,-19.62,-15.04,-3.10,5.59,96.92,55.05
1778267555.4265592,1418843,7.17,2.65,-4.40,-250.14,162.36,-206.64
1778267555.4301353,1418865,-5.57,-9.25,13.53,-250.14,43.68,-247.47
1778267555.4323137,1418887,-9.28,-2.05,19.62,-179.69,-14.68,-189.21
1778267555.4856353,1418909,-14.28,13.30,3.90,-196.97,-39.43,-58.85
1778267555.4869835,1418931,-5.91,4.63,8.00,-106.30,-35.48,-42.09
1778267555.5463984,1418953,-4.15,1.84,11.92,-136.96,-44.13,-33.29
1778267555.5481262,1418975,-4.80,3.94,8.23,-88.31,-34.09,-31.81
1778267555.6058838,1418997,-5.12,2.89,7.95,-32.63,-16.47,-15.37
1778267555.6081426,1419019,-4.66,3.30,7.22,-11.08,-2.55,-2.66
1778267555.6091948,1419041,-4.40,3.61,6.52,-2.88,2.60,-0.68
1778267555.6102717,1419063,-4.29,3.73,6.49,-3.44,4.06,-1.58
1778267555.6671395,1419085,-4.16,4.12,6.10,-8.61,3.57,-5.66
1778267555.670277,1419107,-4.51,3.87,6.46,-15.21,2.41,-11.50
1778267555.6718318,1419129,-4.39,3.79,6.87,-14.91,0.81,-14.95
1778267555.7273352,1419151,-4.56,3.55,6.84,-12.78,2.38,-15.08
1778267555.728893,1419173,-4.53,3.54,6.70,-10.63,3.29,-17.18
1778267555.786073,1419195,-4.59,3.55,6.72,-8.46,4.81,-21.94
1778267555.7881088,1419217,-4.83,3.46,6.62,-7.44,4.34,-24.10
1778267555.7893918,1419239,-4.78,3.15,6.47,-8.05,4.85,-21.34
1778267555.8462908,1419261,-4.66,2.99,7.03,-8.31,8.38,-17.25
1778267555.8479614,1419283,-4.78,3.26,6.70,-3.35,18.70,-15.63
1778267555.8496284,1419305,-4.53,2.83,7.07,0.97,32.31,-15.92
1778267555.90556,1419327,-4.51,3.06,6.99,2.65,48.06,-19.66
1778267555.9073472,1419349,-4.27,3.19,6.86,4.68,67.67,-25.32
1778267555.966813,1419371,-4.39,3.04,7.39,5.11,91.17,-30.24
1778267555.9686491,1419393,-4.03,3.01,6.05,5.02,124.69,-42.49
1778267555.9698107,1419415,-4.64,4.49,5.39,-7.62,168.39,-69.23
1778267556.0258818,1419437,-4.99,5.11,5.69,-40.89,216.80,-115.98
1778267556.02765,1419459,-5.11,6.31,5.33,-92.43,250.13,-175.86
1778267556.0289688,1419481,-8.52,7.66,5.62,-181.68,250.13,-250.14
1778267556.0861068,1419503,-19.62,4.38,12.50,-194.50,250.13,-250.14
1778267556.0878587,1419525,-19.62,3.33,10.35,-216.34,249.71,-250.14
1778267556.08898,1419547,-19.62,10.26,16.82,-250.14,138.66,-250.14
1778267556.1456115,1419569,-18.01,15.44,17.05,-248.45,54.27,-228.89
1778267556.146935,1419591,-12.97,0.84,8.57,-53.39,72.66,-98.14
1778267556.2056205,1419613,-1.05,10.55,10.95,143.15,-48.16,43.95
1778267556.2071912,1419635,-2.67,11.49,4.37,67.02,-122.84,76.40
1778267556.2083905,1419657,-2.16,6.96,3.13,23.60,-169.24,89.63
1778267556.266133,1419679,-2.27,4.37,3.08,55.85,-179.76,121.90
1778267556.2676365,1419701,-3.55,4.84,3.58,110.44,-179.33,164.10
1778267556.2687402,1419723,-5.76,6.21,4.58,118.53,-189.64,197.15
1778267556.3266666,1419745,-8.21,5.94,5.63,104.56,-211.56,222.02
1778267556.3283806,1419767,-9.35,4.67,5.59,111.63,-224.37,241.67
1778267556.3297584,1419789,-10.84,5.03,5.63,132.50,-217.93,250.13
1778267556.386463,1419811,-13.03,6.83,6.44,139.37,-201.85,250.13
1778267556.3887174,1419833,-14.48,6.87,8.42,138.41,-180.35,250.13
1778267556.5059073,1419855,-19.62,4.74,10.73,170.08,-153.39,250.13
1778267556.5079136,1419877,-19.62,2.14,9.93,210.69,-140.76,250.13
1778267556.509103,1419899,-19.62,-5.84,5.73,250.13,-112.18,226.92
1778267556.510396,1419921,-19.62,-13.08,0.70,250.13,-3.11,191.97
1778267556.5112908,1419943,-18.92,-11.96,-0.62,250.13,127.30,177.87
1778267556.5125737,1419965,-19.62,-16.61,-1.04,121.27,118.42,145.02
1778267556.5669193,1419987,-8.94,-12.22,-4.59,-88.58,70.45,-29.28
1778267556.570883,1420009,-4.72,17.09,6.79,-250.14,101.41,-235.88
1778267556.6262028,1420031,-14.37,-12.79,19.62,-250.14,77.73,-212.74
1778267556.6278994,1420053,-17.37,8.04,14.31,-149.60,-71.24,-152.78
1778267556.6292942,1420075,-6.33,-1.31,14.16,-209.31,-61.38,-52.29
1778267556.6874375,1420097,-6.15,7.20,4.01,-108.89,-38.61,-39.95
1778267556.689264,1420119,-5.11,-0.92,17.71,-136.34,-56.45,-37.84
1778267556.6903667,1420141,-4.85,2.54,8.56,-58.07,-28.21,-23.76
1778267556.7454262,1420163,-4.83,3.59,6.89,-27.20,-11.98,-10.31
1778267556.747402,1420185,-4.62,3.36,6.99,-9.80,-1.79,-2.78
1778267556.7484064,1420207,-4.43,3.39,6.82,-4.40,2.37,-1.66
1778267556.806845,1420229,-4.31,3.81,6.55,-3.67,3.96,-2.51
1778267556.8086963,1420251,-4.45,4.02,6.39,-10.97,3.21,-7.24
1778267556.8658817,1420273,-4.48,3.57,6.66,-13.50,3.10,-11.18
1778267556.8679667,1420295,-4.34,3.52,6.60,-9.47,3.27,-12.95
1778267556.8691587,1420317,-4.62,3.43,6.67,-7.05,2.43,-14.51
1778267556.9258626,1420339,-4.65,3.52,6.54,-7.76,0.53,-17.84
1778267556.9878197,1420361,-4.63,3.03,6.87,-8.57,0.64,-17.44
1778267556.990056,1420383,-4.64,3.35,6.75,-6.56,5.26,-15.63
1778267556.9911342,1420405,-4.66,3.18,6.25,-3.31,10.31,-18.26
1778267556.9922578,1420427,-4.68,3.20,6.90,-2.47,14.95,-17.09
1778267556.993094,1420449,-4.39,3.16,6.53,-0.55,22.78,-15.98
1778267557.0456562,1420471,-4.63,3.01,6.74,3.03,33.62,-15.60
1778267557.1061943,1420493,-4.41,3.59,6.50,6.02,50.49,-22.70
1778267557.1081526,1420515,-4.42,2.98,6.69,6.08,71.70,-31.15
1778267557.1092632,1420537,-4.31,3.03,7.10,5.12,101.13,-37.34
1778267557.1101642,1420559,-4.07,3.82,5.74,0.34,137.50,-53.49
1778267557.1671576,1420581,-4.68,4.73,5.62,-18.18,188.43,-86.05
1778267557.1692255,1420603,-4.83,4.37,6.32,-49.96,248.09,-131.73
1778267557.2270963,1420625,-6.93,7.02,6.18,-116.37,250.13,-207.27
1778267557.2290974,1420647,-11.69,5.90,7.51,-189.98,250.13,-250.14
1778267557.2303193,1420669,-19.62,4.30,13.84,-184.18,250.13,-250.14
1778267557.285609,1420691,-19.62,4.79,10.34,-214.84,250.13,-250.14
1778267557.2880251,1420713,-19.62,15.34,16.43,-227.53,153.38,-250.14
1778267557.289211,1420735,-4.79,19.62,15.19,-167.74,-27.02,-132.16
1778267557.3458595,1420757,-18.65,1.19,19.62,-52.15,-40.86,-9.73
1778267557.347491,1420779,-0.73,9.70,6.30,74.98,-99.05,99.46
1778267557.348364,1420801,-0.27,6.26,3.99,52.35,-143.34,96.07
1778267557.4085965,1420823,-1.11,5.04,2.34,44.98,-167.76,87.29
1778267557.4106078,1420845,-4.00,4.93,4.85,82.92,-193.92,117.34
1778267557.411639,1420867,-4.78,4.92,4.58,125.99,-212.67,162.66
1778267557.4659307,1420889,-5.75,4.87,3.57,130.59,-223.62,192.03
1778267557.4673593,1420911,-7.34,4.05,4.58,136.61,-223.60,203.93
1778267557.5261576,1420933,-9.86,3.90,6.72,164.87,-225.28,216.21
1778267557.5275257,1420955,-12.06,4.30,7.33,198.60,-225.04,230.36
1778267557.528424,1420977,-14.03,5.90,8.00,220.34,-208.79,240.86
1778267557.5857463,1420999,-17.29,6.75,8.98,217.18,-177.31,250.13
1778267557.587171,1421021,-19.62,5.96,7.60,205.08,-120.63,250.13
1778267557.645069,1421043,-19.62,0.46,7.81,188.05,-70.40,250.13
1778267557.6464438,1421065,-19.62,-10.01,5.36,216.76,-22.05,250.13
1778267557.647661,1421087,-19.62,-15.11,1.49,247.60,69.46,229.29
1778267557.6488526,1421109,-19.62,-19.62,-0.88,190.47,139.05,196.24
1778267557.7057118,1421131,-19.62,-15.09,-4.39,-15.01,115.54,61.54
1778267557.707218,1421153,11.09,16.58,3.44,-250.14,136.21,-164.43
1778267557.7663844,1421175,-9.32,-5.01,13.57,-250.14,19.11,-235.83
1778267557.767877,1421197,-15.46,-11.27,19.62,-169.57,53.89,-183.77
1778267557.7689717,1421219,-13.45,11.93,2.11,-117.39,-32.68,-83.33
1778267557.8262994,1421241,-4.29,0.81,15.17,-136.01,-34.38,-46.28
1778267557.827986,1421263,-5.10,5.57,5.43,-116.33,-43.71,-42.35
1778267557.8292708,1421285,-5.40,3.36,9.11,-80.24,-37.45,-35.03
1778267557.8869138,1421307,-4.81,2.51,8.47,-42.68,-23.56,-21.24
1778267557.8884344,1421329,-4.47,3.00,7.35,-11.08,-6.16,-5.21
1778267557.9465773,1421351,-4.35,3.42,6.83,-3.62,0.69,-1.73
1778267557.9482975,1421373,-4.37,3.64,6.61,-3.35,1.80,-3.11
1778267557.9496245,1421395,-4.25,3.86,6.44,-6.09,2.00,-5.76
1778267558.0073147,1421417,-4.21,3.82,6.51,-10.54,0.26,-9.29
1778267558.0095756,1421439,-4.39,3.66,6.69,-11.74,-1.37,-12.93
1778267558.0112162,1421461,-4.51,3.63,6.56,-12.18,-2.53,-16.43
1778267558.0664675,1421483,-4.60,3.46,6.81,-11.06,-2.50,-17.31
1778267558.0684485,1421505,-4.63,3.82,6.55,-11.31,-0.98,-18.50
1778267558.0696523,1421527,-4.49,3.32,6.55,-9.29,5.53,-18.82
1778267558.1257193,1421549,-4.45,3.18,6.54,-7.15,13.49,-19.24
1778267558.1270988,1421571,-4.97,3.11,6.75,-4.26,20.40,-18.69
1778267558.252359,1421593,-4.49,3.04,6.50,-1.27,26.11,-17.95
1778267558.2544017,1421615,-4.52,2.93,6.80,0.99,37.79,-19.78
1778267558.255819,1421637,-4.17,2.96,6.90,4.90,54.61,-23.37
1778267558.2569888,1421659,-3.98,3.06,6.95,4.62,77.76,-31.43
1778267558.2580473,1421681,-3.96,2.82,7.39,1.22,104.21,-35.68
1778267558.258945,1421703,-4.48,3.65,6.38,1.81,144.05,-51.20
1778267558.3073878,1421725,-4.88,5.13,5.11,-20.04,189.66,-83.54
1778267558.3089278,1421747,-4.45,4.74,6.06,-55.20,241.74,-132.99
1778267558.3099902,1421769,-6.55,7.25,5.26,-117.77,250.13,-213.62
1778267558.368281,1421791,-11.57,5.23,8.75,-205.15,250.13,-250.14
1778267558.3706496,1421813,-19.62,5.65,12.77,-211.37,250.13,-250.14
1778267558.426175,1421835,-19.62,4.93,13.43,-248.64,209.27,-250.14
1778267558.428209,1421857,-19.05,17.79,15.78,-250.14,110.81,-250.14
1778267558.430286,1421879,-5.31,19.62,17.70,-243.46,5.30,-172.50
1778267558.4865575,1421901,-18.17,18.40,19.62,-123.19,-73.31,10.92
1778267558.5459535,1421923,-2.22,9.46,4.26,74.16,-95.79,130.36
1778267558.5482037,1421945,-1.70,6.67,2.99,32.06,-147.82,126.02
1778267558.5500908,1421967,-1.83,4.62,1.58,18.09,-181.08,111.21
1778267558.5517344,1421989,-2.22,3.85,2.22,50.31,-192.27,119.30
1778267558.6069303,1422011,-4.30,4.71,2.93,101.39,-198.88,153.98
1778267558.6089509,1422033,-6.37,4.99,3.71,130.80,-211.35,189.31
1778267558.6102362,1422055,-7.43,4.42,4.01,138.34,-220.51,208.21
1778267558.666862,1422077,-9.07,4.06,5.03,161.37,-222.00,220.69
1778267558.671063,1422099,-11.29,4.75,6.17,189.35,-218.38,232.05
1778267558.6724021,1422121,-13.67,6.79,7.36,210.06,-203.33,250.13
1778267558.7881508,1422143,-17.46,8.61,8.58,200.69,-179.08,250.13
1778267558.7899308,1422165,-19.62,6.34,8.88,174.09,-134.15,250.13
1778267558.7913647,1422187,-19.62,0.21,8.56,184.70,-65.25,250.13
1778267558.7930398,1422209,-19.62,-9.25,7.32,213.24,-13.55,250.13
1778267558.7940123,1422231,-19.62,-16.78,3.27,250.13,44.30,230.10
1778267558.8480895,1422253,-19.62,-19.62,-0.13,250.13,128.53,197.99
1778267558.85163,1422275,-19.62,-14.39,-4.51,41.43,94.07,55.15
