mac_timestamp,esp32_ms,ax,ay,az,gx,gy,gz
1778268661.083223,146640,-4.63,4.05,6.16,-2.43,0.85,0.79
1778268661.097168,146662,-4.64,4.04,6.28,-2.81,0.68,0.59
1778268661.1257641,146684,-4.68,4.05,6.15,-2.88,0.60,0.71
1778268661.1409423,146706,-4.62,4.02,6.30,-2.56,0.69,0.89
1778268661.1710575,146728,-4.62,4.03,6.24,-2.15,0.73,0.83
1778268661.186047,146750,-4.59,4.07,6.26,-2.01,0.37,1.09
1778268661.2160652,146772,-4.71,4.04,6.27,-1.71,0.64,1.06
1778268661.2308702,146794,-4.65,4.01,6.25,-1.93,0.63,0.98
1778268661.2614448,146816,-4.65,4.05,6.30,-2.36,0.70,0.55
1778268661.2759097,146838,-4.67,4.03,6.22,-2.70,0.67,0.63
1778268661.2918546,146860,-4.72,4.05,6.27,-3.10,0.54,0.70
1778268661.3235831,146882,-4.61,3.98,6.31,-2.91,0.63,0.66
1778268661.3362904,146904,-4.67,4.06,6.21,-2.96,0.81,0.73
1778268661.3669682,146926,-4.65,4.03,6.29,-2.92,0.53,0.85
1778268661.3813334,146948,-4.66,4.06,6.27,-2.91,0.69,0.88
1778268661.413072,146970,-4.62,4.06,6.27,-2.36,0.73,0.96
1778268661.4266067,146992,-4.67,4.02,6.23,-1.81,0.43,0.89
1778268661.4564824,147014,-4.65,4.04,6.31,-2.28,0.42,0.73
1778268661.471277,147036,-4.67,4.06,6.21,-2.65,0.59,0.74
1778268661.5043597,147058,-4.62,4.05,6.39,-2.75,0.67,0.57
1778268661.5174842,147080,-4.67,4.05,6.29,-3.16,0.54,0.66
1778268661.547186,147102,-4.60,4.06,6.22,-2.76,0.50,0.84
1778268661.5613568,147124,-4.62,4.04,6.23,-2.45,0.61,0.63
1778268661.5916727,147146,-4.65,4.04,6.33,-2.31,0.63,0.74
1778268661.6064718,147168,-4.65,4.07,6.30,-2.37,0.61,0.69
1778268661.6216161,147190,-4.62,4.02,6.23,-2.37,0.66,0.38
1778268661.6518466,147212,-4.65,4.06,6.27,-2.56,0.74,0.42
1778268661.6669571,147234,-4.64,3.99,6.28,-3.12,0.69,0.56
1778268661.6970005,147256,-4.69,4.03,6.25,-3.31,0.78,0.38
1778268661.7116933,147278,-4.69,4.02,6.32,-3.18,0.81,0.60
1778268661.7418125,147300,-4.66,4.04,6.21,-3.01,0.80,0.47
1778268661.7564151,147322,-4.66,4.07,6.22,-2.69,0.73,0.66
1778268661.787189,147344,-4.60,4.02,6.30,-2.50,0.65,0.73
1778268661.8025572,147366,-4.68,4.00,6.27,-2.27,0.57,0.61
1778268661.8333898,147388,-4.61,4.00,6.22,-2.15,0.49,0.67
1778268661.847045,147410,-4.63,4.01,6.22,-2.56,0.75,0.40
1778268661.8765528,147432,-4.68,3.99,6.28,-3.05,0.66,0.64
1778268661.8917167,147454,-4.65,4.00,6.28,-2.97,0.66,0.41
1778268661.9216814,147476,-4.64,4.02,6.24,-2.91,0.97,0.66
1778268661.935886,147498,-4.60,3.96,6.27,-2.66,0.78,0.62
1778268661.951547,147520,-4.62,4.03,6.28,-1.98,0.86,0.76
1778268661.9817457,147542,-4.72,4.04,6.26,-2.33,0.71,0.21
1778268661.996292,147564,-4.66,4.03,6.23,-2.62,0.69,0.44
1778268662.0263577,147586,-4.68,4.02,6.32,-2.79,0.89,0.47
1778268662.0414312,147608,-4.69,3.97,6.24,-2.37,0.81,0.48
1778268662.0723763,147630,-4.71,4.00,6.31,-2.66,0.73,0.70
1778268662.0859637,147652,-4.64,3.98,6.21,-1.89,0.62,0.85
1778268662.117447,147674,-4.70,4.00,6.20,-1.98,0.62,0.63
1778268662.1312504,147696,-4.63,4.06,6.27,-1.98,0.49,0.64
1778268662.161721,147718,-4.72,4.03,6.22,-2.24,0.27,0.37
1778268662.1765864,147740,-4.65,4.05,6.21,-2.57,0.23,0.29
1778268662.2076535,147762,-4.66,4.03,6.27,-2.92,0.35,0.18
1778268662.22226,147784,-4.62,4.03,6.36,-2.87,0.49,0.15
1778268662.252478,147806,-4.70,3.99,6.29,-2.92,0.60,0.16
1778268662.2688966,147828,-4.65,3.96,6.22,-3.18,0.79,0.17
1778268662.2835653,147850,-4.68,4.03,6.21,-3.01,1.08,0.18
1778268662.3117757,147872,-4.63,4.03,6.31,-2.47,0.89,0.37
1778268662.3263626,147894,-4.61,4.02,6.27,-1.90,0.62,0.39
1778268662.356679,147916,-4.68,4.01,6.29,-2.33,0.60,0.24
1778268662.4172065,147938,-4.66,3.97,6.28,-2.91,0.35,0.22
1778268662.4187977,147960,-4.66,4.00,6.26,-2.92,0.51,0.02
1778268662.4201822,147982,-4.69,4.00,6.26,-2.21,0.23,0.25
1778268662.4764972,148004,-4.60,3.99,6.16,-3.05,0.08,0.33
1778268662.4782813,148026,-4.65,3.99,6.25,-2.69,0.36,0.39
1778268662.5366592,148048,-4.69,3.96,6.29,-2.24,0.69,0.54
1778268662.5383468,148070,-4.68,4.03,6.26,-2.54,0.27,0.66
1778268662.5391157,148092,-4.66,3.99,6.29,-2.18,0.31,0.87
1778268662.5985763,148114,-4.68,3.97,6.30,-1.96,0.27,0.63
1778268662.6004174,148136,-4.64,3.99,6.32,-1.95,0.47,0.70
1778268662.6016908,148158,-4.62,4.02,6.29,-2.56,0.58,0.72
1778268662.657498,148180,-4.67,4.04,6.27,-2.80,0.58,0.47
1778268662.6593714,148202,-4.65,4.00,6.24,-3.18,0.58,0.35
1778268662.6602187,148224,-4.60,3.98,6.35,-3.48,0.51,0.26
1778268662.7161937,148246,-4.63,3.89,6.37,-2.83,0.67,0.27
1778268662.7187307,148268,-4.68,3.93,6.30,-2.30,0.85,0.60
1778268662.7761087,148290,-4.67,3.92,6.35,-1.91,0.73,0.56
1778268662.7777798,148312,-4.71,3.98,6.18,-1.92,0.46,0.34
1778268662.7787757,148334,-4.69,3.94,6.31,-2.53,0.47,0.35
1778268662.8354926,148356,-4.69,3.89,6.23,-2.28,0.47,0.21
1778268662.83699,148378,-4.67,4.00,6.24,-2.11,0.24,0.35
1778268662.8377814,148400,-4.68,3.95,6.34,-1.53,0.31,0.32
1778268662.897083,148422,-4.60,4.00,6.33,-1.18,0.39,0.37
1778268662.8994308,148444,-4.71,3.94,6.36,-1.44,0.19,0.24
1778268662.9008412,148466,-4.65,4.05,6.24,-2.50,0.37,-0.05
1778268662.95696,148488,-4.69,3.93,6.34,-2.25,0.28,0.12
1778268662.9586976,148510,-4.64,4.01,6.25,-1.72,0.02,0.34
1778268663.0171185,148532,-4.71,3.93,6.27,-2.55,0.37,0.02
1778268663.0192935,148554,-4.67,3.96,6.29,-2.70,0.25,0.11
1778268663.0199485,148576,-4.67,3.93,6.36,-2.77,0.38,0.30
1778268663.0792937,148598,-4.67,3.94,6.30,-2.65,0.43,0.33
1778268663.0825112,148620,-4.68,3.96,6.24,-1.92,0.58,0.53
1778268663.0836155,148642,-4.68,3.95,6.30,-1.75,0.60,0.60
1778268663.1370692,148664,-4.69,3.95,6.27,-1.53,0.74,0.88
1778268663.1392524,148686,-4.68,3.99,6.31,-1.74,0.71,0.44
1778268663.1965728,148708,-4.70,4.01,6.34,-1.92,0.54,0.43
1778268663.1982262,148730,-4.66,3.96,6.34,-2.08,0.25,0.43
1778268663.256515,148752,-4.70,3.98,6.31,-1.59,0.56,0.56
1778268663.2582226,148774,-4.71,3.96,6.27,-1.31,0.44,0.73
1778268663.2590935,148796,-4.65,4.06,6.16,-1.97,0.31,0.52
1778268663.2596505,148818,-4.62,3.96,6.29,-2.81,0.47,0.46
1778268663.3175373,148840,-4.68,3.92,6.27,-1.87,0.47,0.76
1778268663.3193784,148862,-4.69,3.98,6.24,-1.92,0.44,0.69
1778268663.3205836,148884,-4.65,3.94,6.29,-2.02,0.56,0.64
1778268663.3759825,148906,-4.62,3.98,6.35,-2.73,0.66,0.52
1778268663.3770292,148928,-4.67,3.99,6.33,-2.49,0.74,0.75
1778268663.438733,148950,-4.66,3.97,6.33,-2.13,0.76,0.72
1778268663.4405148,148972,-4.71,3.97,6.33,-2.04,0.82,0.71
1778268663.4415846,148994,-4.71,3.95,6.25,-1.50,0.73,0.72
1778268663.497722,149016,-4.66,3.97,6.33,-2.22,0.70,0.64
1778268663.4997847,149038,-4.71,3.97,6.30,-2.67,0.68,0.68
1778268663.5008318,149060,-4.65,4.03,6.32,-2.31,0.33,0.66
1778268663.5584157,149082,-4.65,3.98,6.31,-2.20,0.53,0.72
1778268663.5604873,149104,-4.64,3.99,6.29,-1.79,0.36,0.53
1778268663.5616755,149126,-4.72,3.90,6.26,-2.62,0.56,0.59
1778268663.6167946,149148,-4.68,3.93,6.28,-3.06,0.53,0.50
1778268663.6186597,149170,-4.60,3.97,6.32,-2.60,0.54,0.86
1778268663.679008,149192,-4.68,3.97,6.31,-2.56,0.84,0.65
1778268663.6827087,149214,-4.63,3.96,6.22,-1.60,0.82,0.82
1778268663.6838782,149236,-4.68,3.97,6.32,-1.86,0.77,0.56
1778268663.7366047,149258,-4.66,4.00,6.33,-1.82,0.73,0.71
1778268663.7383034,149280,-4.72,3.99,6.33,-2.38,0.62,0.54
1778268663.739527,149302,-4.71,3.99,6.30,-2.84,0.63,0.50
1778268663.797874,149324,-4.71,3.96,6.34,-2.92,0.56,0.69
1778268663.799268,149346,-4.63,4.00,6.26,-2.44,0.49,0.77
1778268663.8574195,149368,-4.68,3.98,6.31,-2.33,0.33,0.82
1778268663.8594925,149390,-4.65,3.94,6.32,-2.76,0.40,0.61
1778268663.8601825,149412,-4.65,3.94,6.34,-3.30,0.40,0.64
1778268663.9160886,149434,-4.73,3.99,6.35,-3.27,0.44,0.62
1778268663.9177797,149456,-4.73,3.95,6.34,-2.56,0.44,0.54
1778268663.9192095,149478,-4.70,3.99,6.37,-1.92,0.58,0.79
1778268663.9776053,149500,-4.69,3.96,6.25,-2.04,0.67,0.72
1778268663.979306,149522,-4.65,4.01,6.29,-2.85,0.66,0.56
1778268663.9801185,149544,-4.69,3.94,6.34,-2.99,0.78,0.63
1778268664.0377636,149566,-4.62,3.97,6.25,-1.83,0.94,1.06
1778268664.0391753,149588,-4.70,3.94,6.33,-1.56,0.73,0.81
1778268664.097583,149610,-4.64,3.98,6.34,-2.07,0.72,0.92
1778268664.0995295,149632,-4.62,4.05,6.31,-2.74,0.98,0.55
1778268664.1012034,149654,-4.59,3.90,6.34,-2.34,0.85,0.80
1778268664.1573696,149676,-4.65,3.98,6.34,-2.51,0.95,0.82
1778268664.2171504,149698,-4.67,4.02,6.31,-2.11,0.93,0.85
1778268664.2194428,149720,-4.71,3.97,6.28,-2.21,0.75,0.88
1778268664.2205026,149742,-4.66,3.99,6.38,-1.92,0.69,0.90
1778268664.221282,149764,-4.68,3.92,6.39,-1.66,0.66,0.92
1778268664.2221298,149786,-4.66,4.03,6.23,-2.17,0.66,0.91
1778268664.2774642,149808,-4.68,3.97,6.27,-2.70,0.35,0.88
1778268664.2806127,149830,-4.66,4.01,6.34,-2.27,0.56,1.15
1778268664.3371508,149852,-4.62,3.96,6.35,-2.16,0.89,0.69
1778268664.3394666,149874,-4.68,3.90,6.36,-1.15,0.91,0.63
1778268664.3421097,149896,-4.66,4.04,6.26,-1.29,0.59,0.35
1778268664.398465,149918,-4.66,3.99,6.30,-2.08,0.40,-0.47
1778268664.4003775,149940,-4.62,3.98,6.25,-2.49,0.35,-0.29
1778268664.4012854,149962,-4.70,4.08,6.27,-3.70,0.26,-0.24
1778268664.4569108,149984,-4.73,3.97,6.27,-3.55,0.09,-0.06
1778268664.458764,150006,-4.68,4.01,6.33,-3.28,-0.41,0.78
1778268664.5165343,150028,-4.62,4.10,6.25,-3.73,-0.73,0.38
1778268664.5182128,150050,-4.77,4.00,6.22,-4.54,-0.86,-0.01
1778268664.519218,150072,-4.71,3.96,6.29,-5.07,-1.26,-0.12
1778268664.576757,150094,-4.68,3.94,6.26,-5.67,-1.13,-0.37
1778268664.5782964,150116,-4.65,3.88,6.39,-3.42,-0.33,0.31
1778268664.5792992,150138,-4.60,3.87,6.40,-1.42,0.77,1.04
1778268664.6371453,150160,-4.50,3.88,6.39,-0.56,1.73,1.46
1778268664.6385796,150182,-4.60,3.84,6.38,-0.53,2.47,1.29
1778268664.6395857,150204,-4.69,3.91,6.34,0.17,3.12,1.60
1778268664.6973376,150226,-4.68,3.91,6.31,1.02,3.24,1.86
1778268664.6992033,150248,-4.60,3.90,6.37,3.56,2.73,0.92
1778268664.7577176,150270,-4.68,4.04,6.32,3.14,0.93,-0.85
1778268664.7591617,150292,-4.68,3.91,6.34,2.73,-0.86,-2.70
1778268664.76022,150314,-4.66,4.09,6.28,1.65,-2.11,-3.31
1778268664.8166275,150336,-4.77,4.11,6.11,-0.71,-1.89,-2.19
1778268664.8182838,150358,-4.69,4.05,6.11,-3.95,-1.26,-0.87
1778268664.8192651,150380,-4.71,4.06,6.33,-5.11,-1.00,-0.28
1778268664.8768296,150402,-4.67,3.96,6.27,-4.93,-0.68,-0.36
1778268664.8791943,150424,-4.73,3.91,6.33,-5.17,-0.34,-0.31
1778268664.880171,150446,-4.67,3.94,6.35,-3.75,-0.22,0.05
1778268664.9374783,150468,-4.70,3.92,6.39,-2.80,0.20,0.37
1778268664.9391806,150490,-4.71,3.96,6.44,-2.26,0.63,0.69
1778268664.9978685,150512,-4.62,3.93,6.33,-2.09,1.03,0.84
1778268664.9995706,150534,-4.68,3.93,6.28,-1.36,1.33,1.43
1778268665.000551,150556,-4.61,3.94,6.29,-0.59,1.27,1.44
1778268665.0570238,150578,-4.64,3.97,6.28,-0.66,1.12,1.46
1778268665.0592995,150600,-4.71,4.00,6.28,-1.54,0.96,1.11
1778268665.0609493,150622,-4.75,3.98,6.24,-2.20,0.95,1.06
1778268665.1166358,150644,-4.63,3.92,6.29,-2.57,0.75,0.77
1778268665.1186023,150666,-4.67,3.97,6.23,-2.99,0.69,0.75
1778268665.1769745,150688,-4.65,4.00,6.26,-3.15,0.42,0.54
1778268665.178757,150710,-4.68,3.94,6.25,-2.98,0.39,0.64
1778268665.17997,150732,-4.68,3.94,6.31,-2.67,0.31,0.79
1778268665.2365758,150754,-4.63,3.94,6.33,-2.37,0.20,0.72
1778268665.2382922,150776,-4.72,4.01,6.40,-2.34,0.40,0.74
1778268665.2394004,150798,-4.56,3.98,6.26,-2.51,0.34,0.73
1778268665.2968032,150820,-4.65,3.95,6.41,-2.94,0.58,0.73
1778268665.2986362,150842,-4.68,4.01,6.30,-2.70,0.57,0.89
1778268665.2997403,150864,-4.68,3.94,6.23,-2.15,0.73,0.82
1778268665.3563886,150886,-4.68,3.91,6.32,-1.57,1.02,0.82
1778268665.358035,150908,-4.65,3.99,6.34,-1.75,0.92,1.03
1778268665.4170473,150930,-4.62,3.99,6.31,-2.24,0.71,0.85
1778268665.4192884,150952,-4.70,3.97,6.33,-2.63,0.78,0.66
1778268665.4209883,150974,-4.68,3.94,6.29,-2.82,0.89,0.53
1778268665.4799337,150996,-4.66,3.96,6.33,-2.38,0.98,0.88
1778268665.481404,151018,-4.65,3.99,6.22,-2.31,0.89,0.79
1778268665.4820483,151040,-4.72,3.94,6.30,-1.78,1.03,0.76
1778268665.5354893,151062,-4.67,3.99,6.25,-1.32,1.06,1.02
1778268665.5367107,151084,-4.66,4.05,6.22,-2.18,0.96,0.88
1778268665.5378563,151106,-4.69,3.94,6.22,-2.76,0.78,0.92
1778268665.5962515,151128,-4.67,3.96,6.35,-2.40,0.62,0.94
1778268665.5977094,151150,-4.68,3.94,6.36,-2.68,0.29,0.78
1778268665.656301,151172,-4.67,3.99,6.31,-2.60,-0.04,0.76
1778268665.6577854,151194,-4.68,3.95,6.24,-3.13,-0.14,0.41
1778268665.658905,151216,-4.69,3.91,6.36,-2.98,0.08,0.50
1778268665.7162168,151238,-4.56,3.96,6.32,-3.00,0.31,0.50
1778268665.7180011,151260,-4.69,3.93,6.33,-3.04,0.62,0.50
1778268665.718943,151282,-4.68,3.88,6.28,-2.40,0.73,0.85
1778268665.7786293,151304,-4.58,3.95,6.35,-1.50,1.07,0.86
1778268665.7815547,151326,-4.61,3.99,6.28,-1.41,1.09,1.01
1778268665.837827,151348,-4.67,3.92,6.30,-1.32,0.94,1.11
1778268665.839444,151370,-4.70,3.95,6.28,-1.85,0.91,0.99
1778268665.840454,151392,-4.64,3.97,6.35,-2.40,1.30,0.80
1778268665.8969073,151414,-4.68,3.97,6.28,-2.41,1.14,0.97
1778268665.8984227,151436,-4.67,4.02,6.30,-2.40,0.66,0.91
1778268665.8996115,151458,-4.67,3.97,6.24,-2.63,0.31,0.74
1778268665.9568582,151480,-4.71,3.94,6.27,-2.88,-0.11,0.60
1778268665.9582937,151502,-4.61,3.92,6.22,-3.35,-0.02,0.30
1778268665.9591238,151524,-4.68,3.88,6.34,-3.71,0.01,0.55
1778268666.0177994,151546,-4.64,3.94,6.34,-2.60,0.18,0.72
1778268666.0202472,151568,-4.64,3.95,6.35,-1.89,0.56,0.95
1778268666.0787692,151590,-4.64,3.92,6.26,-1.76,0.76,0.82
1778268666.0826416,151612,-4.65,3.94,6.25,-2.47,0.89,0.76
1778268666.0837674,151634,-4.65,3.94,6.26,-2.67,0.96,0.84
1778268666.1384,151656,-4.69,3.96,6.34,-3.28,0.89,0.50
1778268666.1400511,151678,-4.70,3.95,6.27,-3.23,0.47,0.55
1778268666.1413317,151700,-4.68,3.99,6.33,-2.96,0.16,0.64
1778268666.1981215,151722,-4.62,3.96,6.32,-2.30,0.23,0.60
1778268666.1994681,151744,-4.72,3.94,6.33,-2.18,0.02,0.95
1778268666.2718034,151767,-4.65,3.95,6.27,-3.42,-0.03,0.84
1778268666.2731962,151789,-4.67,3.88,6.44,-2.54,0.08,1.02
1778268666.2738235,151811,-4.64,3.99,6.34,-2.08,0.50,0.64
1778268666.3167453,151833,-4.64,3.87,6.32,-1.98,0.62,0.70
1778268666.3186355,151855,-4.63,3.89,6.31,-2.56,0.96,0.50
1778268666.3198152,151877,-4.68,3.93,6.38,-2.11,1.33,0.84
1778268666.3765905,151899,-4.65,3.94,6.31,-1.05,1.53,1.27
1778268666.3782656,151921,-4.66,4.03,6.22,-1.12,1.36,1.03
1778268666.3790178,151943,-4.64,3.97,6.35,-2.09,1.17,0.77
1778268666.4368951,151965,-4.72,3.92,6.29,-2.22,1.19,0.85
1778268666.4389548,151987,-4.63,3.99,6.37,-2.44,0.72,1.20
1778268666.49757,152009,-4.64,3.99,6.26,-2.74,0.41,0.71
1778268666.4994965,152031,-4.67,3.94,6.30,-2.60,0.25,0.60
1778268666.500448,152053,-4.71,4.01,6.32,-2.63,0.10,0.53
1778268666.5569153,152075,-4.66,3.93,6.33,-2.69,0.24,0.56
1778268666.5592644,152097,-4.66,3.89,6.40,-2.92,-0.02,0.74
1778268666.5603147,152119,-4.66,3.94,6.31,-2.75,0.19,0.73
1778268666.6169033,152141,-4.65,3.94,6.29,-2.81,0.25,0.81
1778268666.6185052,152163,-4.68,3.94,6.33,-1.87,0.44,1.02
1778268666.6195815,152185,-4.66,3.94,6.39,-1.53,0.56,1.03
1778268666.6769676,152207,-4.66,3.94,6.30,-2.43,1.06,0.98
1778268666.6789448,152229,-4.67,3.99,6.34,-2.29,1.11,0.92
1778268666.7369075,152251,-4.68,3.95,6.40,-2.30,1.31,0.78
1778268666.7386954,152273,-4.69,3.92,6.29,-1.08,1.43,1.23
1778268666.7400684,152295,-4.64,3.99,6.24,-1.17,1.08,1.06
1778268666.7965045,152317,-4.66,3.92,6.34,-1.48,0.94,0.98
1778268666.8568826,152339,-4.58,3.95,6.31,-1.56,1.15,0.95
1778268666.858739,152361,-4.67,3.94,6.31,-1.63,1.27,0.87
1778268666.8599286,152383,-4.67,3.99,6.25,-2.29,1.11,0.80
1778268666.8608704,152405,-4.65,3.98,6.33,-2.78,0.89,0.76
1778268666.8616474,152427,-4.67,3.98,6.28,-2.44,0.69,0.83
1778268666.9169405,152449,-4.65,3.90,6.33,-2.30,0.49,0.79
1778268666.9185832,152471,-4.71,3.97,6.31,-2.50,0.17,0.83
1778268666.977055,152493,-4.69,3.98,6.40,-2.80,-0.06,0.66
1778268666.9788613,152515,-4.65,3.92,6.34,-3.44,0.07,0.56
1778268666.979683,152537,-4.62,3.89,6.37,-2.31,0.23,0.82
1778268667.0370698,152559,-4.64,3.94,6.27,-2.85,0.51,0.67
1778268667.0385683,152581,-4.63,3.90,6.36,-2.86,0.56,0.66
1778268667.039639,152603,-4.61,3.95,6.32,-1.65,0.92,1.05
1778268667.0969567,152625,-4.68,3.99,6.32,-1.38,0.88,1.07
1778268667.1565678,152647,-4.69,3.94,6.30,-1.81,1.00,0.96
1778268667.158315,152669,-4.64,3.94,6.28,-2.25,0.88,0.95
1778268667.1595604,152691,-4.63,3.93,6.26,-2.34,1.12,0.70
1778268667.1607099,152713,-4.71,3.99,6.33,-2.60,0.86,0.95
1778268667.216796,152735,-4.67,3.94,6.34,-2.38,1.04,0.79
1778268667.2187026,152757,-4.66,3.94,6.25,-1.79,0.76,0.92
1778268667.2197678,152779,-4.70,3.94,6.27,-2.53,0.76,0.92
1778268667.2776089,152801,-4.68,4.00,6.41,-2.22,0.63,0.92
1778268667.2795713,152823,-4.65,4.00,6.33,-1.93,0.66,1.05
1778268667.2812622,152845,-4.61,3.99,6.34,-2.24,0.46,1.13
1778268667.3372211,152867,-4.68,3.97,6.27,-1.84,0.52,0.98
1778268667.3386824,152889,-4.66,3.96,6.31,-1.85,0.59,1.24
1778268667.3971126,152911,-4.66,3.96,6.33,-2.17,0.44,0.92
1778268667.399044,152933,-4.66,3.95,6.33,-2.34,0.62,1.05
1778268667.4001343,152955,-4.62,3.92,6.34,-2.49,0.61,0.96
1778268667.4568338,152977,-4.62,4.00,6.30,-2.56,0.98,0.83
1778268667.4587343,152999,-4.64,3.98,6.29,-1.78,1.00,1.23
1778268667.4604588,153021,-4.66,4.03,6.35,-1.10,0.98,1.39
1778268667.5168297,153043,-4.67,3.99,6.32,-1.15,1.04,1.24
1778268667.518463,153065,-4.64,3.99,6.29,-1.60,0.98,1.21
1778268667.5763962,153087,-4.69,3.99,6.28,-1.79,0.79,1.08
1778268667.5784101,153109,-4.67,3.96,6.33,-2.16,0.85,1.08
1778268667.5795448,153131,-4.62,3.95,6.29,-1.63,0.71,1.26
1778268667.636854,153153,-4.58,4.01,6.32,-1.12,0.53,1.41
1778268667.638204,153175,-4.69,3.98,6.29,-1.17,0.40,1.27
1778268667.638944,153197,-4.60,3.96,6.27,-2.02,0.41,0.88
1778268667.6972697,153219,-4.67,4.00,6.21,-2.07,0.28,1.03
1778268667.6986067,153241,-4.72,4.03,6.24,-2.43,0.31,1.05
1778268667.6995606,153263,-4.62,4.06,6.31,-2.58,0.66,0.94
1778268667.756706,153285,-4.63,4.03,6.30,-1.69,0.23,1.15
1778268667.7582853,153307,-4.66,4.04,6.16,-2.22,0.15,1.24
1778268667.8166559,153329,-4.68,4.00,6.29,-2.76,0.45,0.85
1778268667.8179758,153351,-4.64,3.98,6.32,-2.47,0.50,0.96
1778268667.8186529,153373,-4.63,4.07,6.27,-2.05,0.71,1.16
1778268667.8762057,153395,-4.65,4.00,6.28,-1.50,0.97,1.11
1778268667.8774893,153417,-4.61,3.99,6.34,-1.37,1.00,1.24
1778268667.8784094,153439,-4.63,4.00,6.33,-1.40,1.25,1.14
1778268667.9363687,153461,-4.63,4.08,6.29,-2.21,1.33,0.60
1778268667.9382203,153483,-4.67,4.01,6.29,-2.29,1.29,0.88
1778268667.939323,153505,-4.71,4.03,6.21,-2.16,1.21,0.87
1778268667.9973938,153527,-4.66,4.03,6.18,-2.27,1.24,0.71
1778268667.999839,153549,-4.69,4.05,6.27,-2.25,0.94,0.74
1778268668.056901,153571,-4.64,4.04,6.30,-1.49,0.79,1.06
1778268668.0587564,153593,-4.63,4.00,6.21,-1.86,0.95,0.91
1778268668.0601888,153615,-4.69,4.02,6.31,-2.06,0.79,0.95
1778268668.1188035,153637,-4.69,4.00,6.27,-2.09,0.83,0.93
1778268668.1203778,153659,-4.64,3.98,6.33,-1.92,0.53,0.93
1778268668.121154,153681,-4.59,4.07,6.21,-1.60,0.33,0.92
1778268668.1775424,153703,-4.65,4.08,6.33,-1.61,0.45,1.01
1778268668.1791103,153725,-4.70,4.01,6.20,-2.11,0.41,0.70
1778268668.237775,153747,-4.66,4.06,6.22,-2.25,0.30,0.82
1778268668.2398493,153769,-4.68,4.05,6.26,-2.53,0.43,0.75
1778268668.240957,153791,-4.64,4.03,6.34,-2.90,0.50,0.48
1778268668.297691,153813,-4.66,4.02,6.27,-3.08,0.50,0.61
1778268668.2996666,153835,-4.69,3.95,6.24,-2.98,0.63,0.80
1778268668.3014631,153857,-4.66,3.96,6.28,-1.79,0.76,0.90
1778268668.356562,153879,-4.57,4.03,6.27,-1.68,0.73,0.81
1778268668.3580256,153901,-4.62,4.05,6.27,-2.36,0.93,0.82
1778268668.3587718,153923,-4.61,4.00,6.30,-2.43,0.85,0.84
1778268668.4166927,153945,-4.67,4.07,6.33,-1.86,0.90,0.83
1778268668.4184604,153967,-4.72,4.05,6.29,-1.65,0.76,0.97
1778268668.477129,153989,-4.64,4.04,6.22,-2.14,0.64,0.69
1778268668.483442,154011,-4.69,4.07,6.29,-2.89,0.50,0.69
1778268668.4849567,154033,-4.59,4.01,6.23,-3.15,0.56,0.75
1778268668.5377162,154055,-4.65,4.01,6.24,-3.15,0.42,0.56
1778268668.5395346,154077,-4.65,4.07,6.34,-2.93,0.53,0.76
1778268668.5407944,154099,-4.58,4.00,6.25,-2.19,0.54,0.83
1778268668.597403,154121,-4.65,4.05,6.25,-2.02,0.62,0.70
1778268668.5990138,154143,-4.63,4.00,6.33,-1.92,0.72,0.85
1778268668.5999773,154165,-4.64,4.05,6.27,-2.15,0.82,0.70
1778268668.6568139,154187,-4.70,4.04,6.28,-2.42,0.89,0.64
1778268668.6584265,154209,-4.65,4.03,6.23,-2.69,0.86,0.69
1778268668.7171283,154231,-4.65,4.05,6.27,-1.99,0.76,0.98
1778268668.719019,154253,-4.65,4.07,6.21,-1.85,0.81,0.99
1778268668.7200756,154275,-4.60,4.04,6.26,-1.89,0.73,0.79
1778268668.7767377,154297,-4.65,4.04,6.29,-2.66,0.76,0.77
1778268668.7783144,154319,-4.65,4.04,6.33,-2.30,0.76,0.85
1778268668.7791052,154341,-4.68,3.98,6.30,-2.19,0.69,0.68
1778268668.8368356,154363,-4.71,4.01,6.22,-2.23,0.58,0.84
1778268668.8380516,154385,-4.65,4.06,6.22,-2.02,0.61,0.87
1778268668.897273,154407,-4.69,4.02,6.33,-2.74,0.61,0.80
1778268668.8988643,154429,-4.67,3.99,6.28,-2.90,0.62,0.72
1778268668.8998315,154451,-4.61,4.02,6.32,-2.60,0.57,0.85
1778268668.9565234,154473,-4.67,4.04,6.29,-2.60,0.60,0.85
1778268668.9579895,154495,-4.69,3.95,6.27,-2.43,0.73,0.94
1778268668.9591954,154517,-4.65,4.00,6.27,-1.91,0.61,1.10
1778268669.0164587,154539,-4.67,4.05,6.29,-1.86,0.68,0.98
1778268669.018618,154561,-4.62,4.01,6.16,-1.85,0.63,0.90
1778268669.0198667,154583,-4.70,3.99,6.33,-2.53,0.82,0.81
1778268669.0768187,154605,-4.65,4.02,6.23,-2.74,0.83,0.72
1778268669.0785499,154627,-4.63,4.01,6.29,-2.98,0.69,0.65
1778268669.1420383,154649,-4.63,4.03,6.28,-2.14,0.48,0.95
1778268669.1469493,154671,-4.67,4.03,6.31,-1.92,0.60,1.00
1778268669.1488805,154693,-4.60,3.99,6.28,-2.66,0.71,0.72
1778268669.1969688,154715,-4.65,4.05,6.28,-2.85,0.71,0.89
1778268669.198847,154737,-4.68,3.96,6.24,-2.49,0.61,0.85
1778268669.1999395,154759,-4.62,4.03,6.29,-1.82,0.73,0.92
1778268669.2566106,154781,-4.71,4.01,6.25,-2.30,0.73,0.45
1778268669.2580717,154803,-4.65,3.97,6.24,-2.52,0.69,0.55
1778268669.259259,154825,-4.60,4.00,6.25,-2.58,0.66,0.75
1778268669.3163934,154847,-4.65,4.02,6.27,-2.56,0.85,0.56
1778268669.3177366,154869,-4.67,4.04,6.26,-2.70,0.79,0.66
1778268669.3769438,154891,-4.60,4.06,6.24,-2.60,0.79,0.92
1778268669.3781803,154913,-4.63,4.00,6.27,-2.03,0.73,0.82
1778268669.3792062,154935,-4.68,3.99,6.27,-2.00,0.76,1.03
1778268669.4363844,154957,-4.65,4.02,6.30,-2.08,0.70,0.90
1778268669.438037,154979,-4.60,4.04,6.31,-2.55,0.68,0.92
1778268669.4391365,155001,-4.65,3.99,6.19,-2.76,0.85,0.68
1778268669.4967098,155023,-4.58,4.05,6.21,-2.73,0.76,0.51
1778268669.4984365,155045,-4.67,4.05,6.26,-3.02,0.69,0.82
1778268669.5603309,155067,-4.64,4.04,6.22,-2.83,0.77,0.76
1778268669.5622165,155089,-4.71,4.00,6.27,-2.44,0.55,0.79
1778268669.563318,155111,-4.66,4.06,6.22,-2.27,0.53,0.89
1778268669.6167638,155133,-4.65,3.96,6.26,-1.91,0.71,0.97
1778268669.6179295,155155,-4.65,3.98,6.30,-1.97,0.45,1.08
1778268669.6189287,155177,-4.64,4.03,6.34,-2.21,0.82,0.76
1778268669.6781921,155199,-4.60,4.03,6.27,-2.90,0.65,0.69
1778268669.6811666,155221,-4.63,4.02,6.24,-2.63,0.71,0.73
1778268669.6825836,155243,-4.68,4.03,6.21,-2.46,0.69,0.85
1778268669.7372398,155265,-4.63,4.00,6.26,-2.27,0.67,0.80
1778268669.7388124,155287,-4.68,4.00,6.18,-1.88,0.74,0.91
1778268669.796879,155309,-4.65,4.06,6.27,-2.18,0.69,0.91
1778268669.7990954,155331,-4.67,4.03,6.26,-2.50,0.60,0.73
1778268669.8004377,155353,-4.69,4.05,6.29,-2.82,0.70,0.64
1778268669.8652546,155375,-4.64,4.01,6.32,-2.75,0.54,0.68
1778268669.8734062,155397,-4.65,4.04,6.29,-2.47,0.89,1.00
1778268669.8780508,155419,-4.68,4.00,6.22,-2.24,0.77,0.89
1778268669.919081,155441,-4.66,4.00,6.35,-2.04,0.66,0.95
1778268669.9221337,155463,-4.67,4.02,6.27,-1.95,0.63,0.98
1778268669.923439,155485,-4.65,4.04,6.23,-2.85,0.69,0.70
1778268669.9779274,155507,-4.69,4.03,6.29,-2.42,0.81,0.89
1778268669.9797907,155529,-4.59,4.02,6.26,-1.84,0.65,1.04
1778268670.0380087,155551,-4.61,4.03,6.29,-1.84,0.61,0.87
1778268670.0961251,155573,-4.61,4.06,6.34,-2.17,0.77,0.84
1778268670.0979595,155595,-4.68,4.02,6.29,-2.81,0.69,0.79
1778268670.0984938,155617,-4.59,4.07,6.25,-2.73,0.85,0.75
1778268670.0992143,155639,-4.64,3.97,6.29,-2.26,0.76,0.96
1778268670.157847,155661,-4.64,4.03,6.21,-2.02,0.56,0.90
1778268670.1599374,155683,-4.64,3.97,6.21,-1.95,0.59,0.96
1778268670.1611314,155705,-4.64,4.06,6.23,-2.45,0.57,0.78
1778268670.162114,155727,-4.64,4.02,6.25,-2.85,0.42,0.61
1778268670.2165139,155749,-4.64,4.10,6.29,-3.00,0.56,0.64
1778268670.218106,155771,-4.70,4.03,6.30,-2.84,0.56,0.76
1778268670.277648,155793,-4.66,3.99,6.29,-2.20,0.53,0.72
1778268670.279716,155815,-4.66,4.04,6.36,-2.37,0.40,0.70
1778268670.2828503,155837,-4.68,4.04,6.30,-2.85,0.51,0.69
1778268670.3366423,155859,-4.57,4.02,6.27,-2.82,0.37,0.61
1778268670.3381228,155881,-4.64,4.01,6.27,-3.19,0.40,0.69
1778268670.3391516,155903,-4.63,4.00,6.33,-2.80,0.60,0.85
1778268670.457245,155925,-4.63,4.04,6.27,-2.05,0.44,0.82
1778268670.4598682,155947,-4.63,4.02,6.29,-2.67,0.66,0.57
1778268670.461657,155969,-4.69,4.00,6.34,-2.90,0.80,0.98
1778268670.4634457,155991,-4.68,4.02,6.26,-2.68,0.68,0.86
1778268670.466053,156013,-4.61,4.01,6.33,-2.15,0.69,1.04
1778268670.5181208,156035,-4.64,4.06,6.23,-1.78,0.51,0.96
1778268670.5193033,156057,-4.70,3.96,6.26,-1.63,0.66,0.95
1778268670.5200887,156079,-4.57,4.01,6.32,-1.98,0.52,0.66
1778268670.5767143,156101,-4.61,4.07,6.31,-2.47,0.64,0.67
1778268670.5789535,156123,-4.68,4.03,6.31,-3.10,0.68,0.73
1778268670.5800204,156145,-4.62,4.01,6.33,-2.21,0.47,1.01
1778268670.6365266,156167,-4.61,4.03,6.23,-1.95,0.54,0.89
1778268670.6979842,156189,-4.63,3.97,6.23,-2.47,0.52,0.76
1778268670.6999655,156211,-4.63,4.06,6.30,-3.00,0.67,0.66
1778268670.7009492,156233,-4.68,3.92,6.32,-2.89,0.40,0.86
1778268670.7021477,156255,-4.57,4.00,6.29,-2.63,0.58,0.91
1778268670.7567878,156277,-4.66,4.04,6.29,-2.12,0.69,0.98
1778268670.7582817,156299,-4.61,4.04,6.24,-1.92,0.61,0.92
1778268670.7593598,156321,-4.61,4.04,6.30,-1.74,0.56,0.83
1778268670.81726,156343,-4.66,4.03,6.26,-2.24,0.33,0.69
1778268670.8190196,156365,-4.61,4.07,6.23,-2.73,0.39,0.36
1778268670.8769264,156387,-4.64,4.05,6.21,-3.36,-0.41,-0.19
1778268670.8789327,156409,-4.35,4.01,6.09,-5.41,-1.08,-2.16
1778268670.8803802,156431,-4.70,3.80,6.52,-7.06,-2.00,-2.61
1778268670.937198,156453,-4.63,3.82,6.50,-4.98,-1.29,-0.79
1778268670.938857,156475,-4.66,3.99,6.31,-4.73,-0.68,-0.72
1778268670.94045,156497,-4.65,4.04,6.32,-6.49,-1.31,-1.85
1778268670.9967065,156519,-4.54,4.15,6.22,-6.98,-2.12,-2.76
1778268670.9987044,156541,-4.71,4.04,6.27,-8.58,-3.07,-4.34
1778268670.999775,156563,-4.62,3.74,6.56,-10.00,-4.11,-4.09
1778268671.0570889,156585,-4.62,3.76,6.42,-8.78,-3.39,-2.87
1778268671.0585926,156607,-4.62,3.81,6.44,-7.47,-2.67,-1.58
1778268671.1188567,156629,-4.57,3.80,6.39,-6.65,-2.52,-1.15
1778268671.1203632,156651,-4.67,3.85,6.45,-7.15,-3.17,-1.60
1778268671.121268,156673,-4.60,3.74,6.45,-7.95,-3.63,-2.28
1778268671.1767924,156695,-4.47,3.66,6.39,-9.28,-3.04,-3.16
1778268671.1782098,156717,-4.58,3.68,6.57,-9.07,-1.36,-3.79
1778268671.1796613,156739,-4.55,3.63,6.53,-7.41,-1.13,-3.36
1778268671.2363982,156761,-4.61,3.64,6.58,-6.98,-0.61,-2.95
1778268671.238007,156783,-4.65,3.58,6.51,-5.92,-0.92,-2.09
1778268671.2389476,156805,-4.62,3.52,6.32,-6.60,-1.05,-0.62
1778268671.2993312,156827,-4.59,3.66,6.57,-5.60,-1.67,-0.41
1778268671.3007548,156849,-4.56,3.65,6.56,-6.44,-0.95,-1.18
1778268671.3566124,156871,-4.61,3.55,6.66,-6.81,-0.74,-1.11
1778268671.3581197,156893,-4.48,3.45,6.57,-6.44,-0.47,-0.57
1778268671.3589747,156915,-4.53,3.67,6.54,-5.86,-0.06,-0.62
1778268671.416669,156937,-4.51,3.57,6.54,-7.89,-0.68,-1.38
1778268671.418551,156959,-4.54,3.48,6.72,-8.66,-0.34,-1.75
1778268671.4194975,156981,-4.59,3.43,6.62,-8.37,-1.04,-0.95
1778268671.4767087,157003,-4.64,3.58,6.49,-8.97,-2.38,-0.32
1778268671.536976,157025,-4.59,3.46,6.61,-9.02,-3.49,-0.25
1778268671.5388687,157047,-4.48,3.36,6.69,-8.31,-3.40,-0.23
1778268671.5398235,157069,-4.43,3.33,6.71,-6.55,-2.84,0.44
1778268671.5407424,157091,-4.46,3.23,6.72,-5.02,-2.18,0.79
1778268671.596648,157113,-4.47,3.27,6.83,-3.89,-1.73,0.95
1778268671.5982492,157135,-4.50,3.28,6.76,-2.54,-1.50,1.31
1778268671.5990038,157157,-4.45,3.34,6.79,-2.36,-0.46,1.24
1778268671.6559694,157179,-4.46,3.32,6.76,-1.57,0.53,1.05
1778268671.6574364,157201,-4.56,3.30,6.72,-0.11,1.06,1.59
1778268671.6584759,157223,-4.52,3.39,6.67,0.34,0.88,1.83
1778268671.7174163,157245,-4.48,3.40,6.73,0.92,1.02,2.04
1778268671.7190557,157267,-4.57,3.54,6.66,-0.90,0.87,1.63
1778268671.776763,157289,-4.47,3.48,6.61,-1.66,0.64,1.12
1778268671.7782776,157311,-4.44,3.44,6.70,-1.27,0.93,0.99
1778268671.7791295,157333,-4.54,3.52,6.71,-1.49,0.94,0.89
1778268671.8366585,157355,-4.48,3.37,6.75,-1.84,0.94,0.63
1778268671.8380291,157377,-4.53,3.42,6.72,-2.10,1.41,0.57
1778268671.8388834,157399,-4.45,3.42,6.71,-2.47,1.11,0.68
1778268671.8972714,157421,-4.50,3.46,6.67,-2.07,1.27,0.70
1778268671.8989491,157443,-4.44,3.39,6.75,-2.18,1.75,0.68
1778268671.8999126,157465,-4.47,3.49,6.71,-1.56,1.95,0.70
1778268671.9564636,157487,-4.23,3.50,6.69,-1.88,2.17,0.79
1778268671.9584355,157509,-4.54,3.31,6.76,-2.06,2.56,1.10
1778268672.0168414,157531,-4.28,3.35,6.65,-1.52,3.01,1.22
1778268672.018538,157553,-4.47,3.46,6.77,-2.06,2.84,0.73
1778268672.0194073,157575,-5.02,2.69,6.47,0.64,2.25,-0.63
1778268672.0767074,157597,-3.92,3.32,6.60,-0.11,1.27,0.27
1778268672.0783458,157619,-4.86,3.73,6.94,0.48,-0.11,-0.34
1778268672.0796242,157641,-5.25,3.18,6.92,0.24,-0.53,-0.76
1778268672.1368227,157663,-5.11,3.38,6.65,0.05,-0.50,-0.12
1778268672.1382759,157685,-5.26,3.34,6.56,-0.14,1.07,0.87
1778268672.196732,157707,-4.51,3.28,6.68,0.18,2.25,2.59
1778268672.198236,157729,-4.56,3.48,6.67,1.36,2.85,2.60
1778268672.1995935,157751,-4.62,3.50,6.69,1.89,2.97,2.53
1778268672.25688,157773,-4.55,3.56,6.63,1.59,2.39,2.30
1778268672.2587175,157795,-4.54,3.49,6.62,0.93,2.48,1.83
1778268672.2599072,157817,-4.64,3.58,6.59,-0.43,2.01,1.54
1778268672.3158813,157839,-4.58,3.60,6.55,-1.42,0.89,1.65
1778268672.3172219,157861,-4.54,3.53,6.56,-1.51,0.65,1.33
1778268672.3182535,157883,-4.60,3.60,6.60,-1.47,0.40,1.59
1778268672.3765337,157905,-4.63,3.58,6.48,-1.83,-0.33,1.59
1778268672.37801,157927,-4.54,3.58,6.60,-2.89,-0.81,1.31
1778268672.4366603,157949,-4.49,3.47,6.53,-2.50,-0.27,1.59
1778268672.4381752,157971,-4.48,3.53,6.59,-1.82,0.61,1.60
1778268672.4391654,157993,-4.52,3.58,6.62,-1.27,1.05,1.50
1778268672.4973395,158015,-4.53,3.51,6.64,-0.91,1.48,1.58
1778268672.501955,158037,-4.58,3.52,6.60,0.54,1.95,1.77
1778268672.5028987,158059,-4.53,3.53,6.58,1.26,2.50,1.89
1778268672.5569093,158081,-4.56,3.61,6.53,1.25,2.69,1.96
1778268672.5587933,158103,-4.58,3.59,6.53,0.49,2.21,1.73
1778268672.559884,158125,-4.61,3.56,6.50,0.15,1.98,1.74
1778268672.616197,158147,-4.58,3.60,6.57,0.60,2.37,1.93
1778268672.6180232,158169,-4.56,3.66,6.55,0.62,2.63,1.78
1778268672.675905,158191,-4.59,3.71,6.54,0.03,2.08,1.69
1778268672.677848,158213,-4.57,3.70,6.56,0.15,1.52,1.63
1778268672.6792347,158235,-4.52,3.58,6.46,-0.32,1.48,1.65
1778268672.7367272,158257,-4.58,3.71,6.52,-0.60,1.53,1.45
1778268672.7971444,158279,-4.61,3.70,6.50,-1.28,1.56,1.24
1778268672.7989573,158301,-4.67,3.73,6.46,-1.70,1.18,1.01
1778268672.7998722,158323,-4.62,3.67,6.56,-1.61,0.98,1.21
1778268672.8008268,158345,-4.58,3.68,6.57,-1.44,0.92,1.15
1778268672.8015862,158367,-4.58,3.66,6.50,-1.50,0.85,1.21
1778268672.8563707,158389,-4.61,3.66,6.48,-2.13,0.47,0.88
1778268672.857733,158411,-4.60,3.71,6.48,-2.72,0.18,0.82
1778268672.9164553,158433,-4.59,3.73,6.54,-3.28,0.04,0.63
1778268672.9179237,158455,-4.58,3.63,6.48,-3.54,0.07,0.64
1778268672.9187577,158477,-4.55,3.66,6.50,-2.88,0.14,0.76
1778268672.9763825,158499,-4.54,3.66,6.52,-2.32,0.18,0.81
1778268673.0382419,158521,-4.54,3.68,6.57,-2.02,0.50,0.86
1778268673.0406482,158543,-4.59,3.62,6.44,-2.02,0.76,0.64
1778268673.0416493,158565,-4.56,3.67,6.46,-2.31,1.24,0.79
1778268673.0427094,158587,-4.58,3.71,6.45,-2.46,1.20,0.84
1778268673.097104,158609,-4.59,3.61,6.51,-1.96,1.25,1.09
1778268673.0993972,158631,-4.58,3.68,6.48,-1.30,1.14,1.04
1778268673.1004603,158653,-4.58,3.63,6.53,-1.63,0.98,0.83
1778268673.1566412,158675,-4.61,3.71,6.49,-1.74,0.95,0.74
1778268673.1585531,158697,-4.62,3.70,6.52,-2.28,0.88,0.94
1778268673.1595566,158719,-4.56,3.71,6.56,-2.81,0.77,0.84
1778268673.2166126,158741,-4.58,3.71,6.49,-3.07,0.55,0.66
1778268673.2183206,158763,-4.65,3.69,6.55,-2.66,0.56,0.85
1778268673.2194057,158785,-4.63,3.69,6.49,-2.58,0.49,0.70
1778268673.2770221,158807,-4.61,3.70,6.51,-2.77,0.58,0.76
1778268673.2787278,158829,-4.60,3.71,6.52,-2.87,0.59,0.77
1778268673.3367014,158851,-4.61,3.71,6.51,-2.59,0.60,0.90
1778268673.3392432,158873,-4.54,3.76,6.55,-2.10,0.63,1.11
1778268673.3406606,158895,-4.57,3.69,6.50,-2.05,0.66,0.82
1778268673.3972898,158917,-4.56,3.65,6.50,-2.47,0.71,0.67
1778268673.3989184,158939,-4.59,3.68,6.56,-2.85,0.71,0.70
1778268673.4002519,158961,-4.61,3.63,6.47,-1.96,0.74,0.86
1778268673.4573138,158983,-4.60,3.67,6.48,-1.82,0.67,0.89
1778268673.4598587,159005,-4.59,3.75,6.53,-2.18,0.91,0.70
1778268673.5169418,159027,-4.57,3.69,6.49,-2.84,0.76,0.76
1778268673.518748,159049,-4.63,3.67,6.50,-2.72,0.86,0.82
1778268673.5206165,159071,-4.61,3.66,6.48,-2.03,0.69,0.73
1778268673.5770307,159093,-4.61,3.65,6.49,-1.92,0.92,0.87
1778268673.5787823,159115,-4.56,3.64,6.51,-1.95,0.63,0.90
1778268673.5803504,159137,-4.54,3.68,6.52,-2.00,0.60,0.92
1778268673.6369853,159159,-4.54,3.69,6.50,-2.62,0.56,0.76
1778268673.6391098,159181,-4.51,3.70,6.48,-2.99,0.67,0.63
1778268673.6404433,159203,-4.61,3.71,6.49,-2.73,0.63,0.73
1778268673.696783,159225,-4.54,3.67,6.48,-1.98,0.85,0.96
1778268673.6987672,159247,-4.57,3.73,6.53,-1.85,0.66,0.85
1778268673.7568297,159269,-4.58,3.71,6.46,-2.24,0.78,0.58
1778268673.7584755,159291,-4.57,3.71,6.45,-2.85,0.79,0.72
1778268673.7596145,159313,-4.58,3.67,6.43,-2.37,0.82,0.91
1778268673.817328,159335,-4.65,3.68,6.59,-2.07,0.86,0.97
1778268673.8196554,159357,-4.64,3.69,6.46,-1.98,0.63,0.89
1778268673.8207452,159379,-4.53,3.72,6.47,-2.21,0.56,0.82
1778268673.8765848,159401,-4.60,3.66,6.50,-2.41,0.76,0.73
1778268673.878166,159423,-4.55,3.71,6.52,-2.91,0.64,0.74
1778268673.8791947,159445,-4.59,3.71,6.51,-2.98,0.69,0.74
1778268673.9368963,159467,-4.56,3.68,6.47,-2.78,0.80,0.85
1778268673.9386928,159489,-4.61,3.72,6.47,-1.87,0.61,0.89
1778268673.9968452,159511,-4.57,3.67,6.52,-2.18,0.82,0.80
1778268673.9988906,159533,-4.61,3.68,6.49,-2.34,0.60,0.83
1778268673.9999166,159555,-4.58,3.68,6.51,-2.75,0.71,0.73
1778268674.0567372,159577,-4.56,3.71,6.43,-2.85,0.62,0.86
1778268674.0584612,159599,-4.59,3.76,6.46,-2.69,0.76,0.75
1778268674.0593534,159621,-4.52,3.68,6.48,-1.81,0.76,1.02
1778268674.117562,159643,-4.54,3.75,6.48,-1.95,0.75,0.84
1778268674.1191144,159665,-4.55,3.69,6.53,-2.68,0.78,0.63
1778268674.1779535,159687,-4.57,3.72,6.49,-2.46,0.54,0.84
1778268674.1812131,159709,-4.59,3.69,6.48,-2.10,0.60,0.92
1778268674.1823134,159731,-4.57,3.71,6.55,-1.68,0.70,0.87
1778268674.237481,159753,-4.56,3.76,6.46,-2.11,0.80,0.87
1778268674.2385807,159775,-4.68,3.66,6.54,-2.60,0.63,0.64
1778268674.2396772,159797,-4.56,3.69,6.49,-2.89,0.65,0.75
1778268674.2969294,159819,-4.57,3.66,6.56,-2.73,0.81,0.75
1778268674.2990634,159841,-4.62,3.62,6.49,-2.00,0.78,1.04
1778268674.3002272,159863,-4.56,3.69,6.49,-1.98,0.80,0.98
1778268674.3566217,159885,-4.60,3.72,6.48,-1.76,0.63,1.10
1778268674.3577309,159907,-4.56,3.70,6.54,-1.95,0.68,0.77
1778268674.4174192,159929,-4.61,3.67,6.48,-2.68,0.77,0.41
1778268674.419107,159951,-4.60,3.68,6.50,-2.76,1.02,0.79
1778268674.4202828,159973,-4.53,3.72,6.47,-2.53,0.77,0.66
1778268674.4772334,159995,-4.58,3.71,6.49,-2.79,0.73,0.83
1778268674.4786527,160017,-4.62,3.66,6.51,-2.69,0.75,0.79
1778268674.4802222,160039,-4.61,3.70,6.50,-2.55,0.80,0.81
1778268674.5372705,160061,-4.57,3.69,6.50,-2.16,0.82,0.89
1778268674.5387926,160083,-4.61,3.70,6.42,-1.92,0.78,0.82
1778268674.539583,160105,-4.58,3.66,6.51,-2.45,0.56,0.82
1778268674.5961077,160127,-4.61,3.65,6.39,-2.48,0.64,0.85
1778268674.5976324,160149,-4.56,3.69,6.60,-2.89,0.76,0.61
1778268674.6565213,160171,-4.62,3.69,6.44,-2.33,0.66,0.98
1778268674.6581326,160193,-4.61,3.70,6.48,-2.15,0.67,0.97
1778268674.6593268,160215,-4.64,3.70,6.53,-2.05,0.66,0.95
1778268674.7166233,160237,-4.64,3.75,6.51,-1.95,0.73,0.94
1778268674.7183402,160259,-4.63,3.69,6.47,-1.91,0.66,0.92
1778268674.719184,160281,-4.57,3.70,6.41,-2.14,0.63,0.86
1778268674.776963,160303,-4.57,3.71,6.55,-2.47,0.90,0.84
1778268674.7787344,160325,-4.52,3.67,6.44,-2.69,0.74,0.82
1778268674.8355594,160347,-4.60,3.70,6.51,-2.57,0.89,0.99
1778268674.8371322,160369,-4.56,3.68,6.47,-2.34,0.66,0.81
1778268674.8378007,160391,-4.62,3.68,6.58,-2.03,0.54,0.84
1778268674.8976219,160413,-4.62,3.69,6.49,-1.98,0.66,0.89
1778268674.8993194,160435,-4.59,3.72,6.49,-2.34,0.76,0.87
1778268674.9004133,160457,-4.54,3.68,6.55,-2.66,0.79,0.69
1778268674.9568284,160479,-4.57,3.74,6.49,-2.73,0.71,0.82
1778268674.959586,160501,-4.59,3.72,6.52,-2.95,0.78,0.72
1778268674.9619176,160523,-4.62,3.72,6.50,-1.98,0.84,0.86
1778268675.0174031,160545,-4.61,3.70,6.49,-2.03,0.79,0.85
1778268675.019362,160567,-4.55,3.69,6.42,-1.73,0.67,0.92
1778268675.0771172,160589,-4.62,3.63,6.56,-1.76,0.58,0.93
1778268675.0786388,160611,-4.59,3.70,6.46,-2.06,0.76,0.85
1778268675.0796132,160633,-4.58,3.70,6.48,-2.87,0.69,0.78
1778268675.1372457,160655,-4.53,3.68,6.49,-1.83,0.76,0.88
1778268675.1391335,160677,-4.62,3.67,6.49,-2.09,0.48,0.83
1778268675.1401417,160699,-4.58,3.71,6.45,-2.43,0.75,0.78
1778268675.1982431,160721,-4.67,3.66,6.49,-2.69,0.83,0.60
1778268675.2001202,160743,-4.62,3.68,6.50,-2.77,0.89,0.66
1778268675.20089,160765,-4.60,3.67,6.52,-2.05,0.80,0.95
1778268675.2567062,160787,-4.60,3.67,6.44,-1.87,0.70,0.92
1778268675.2582517,160809,-4.57,3.70,6.53,-1.81,0.75,1.04
1778268675.317609,160831,-4.55,3.69,6.53,-1.83,0.73,0.81
1778268675.3198054,160853,-4.66,3.67,6.53,-2.44,0.63,0.78
1778268675.3216805,160875,-4.64,3.70,6.53,-2.79,0.64,0.79
1778268675.377881,160897,-4.56,3.76,6.49,-2.83,0.73,0.68
1778268675.3798282,160919,-4.62,3.73,6.48,-2.60,0.64,0.78
1778268675.3819842,160941,-4.56,3.69,6.46,-2.00,0.60,0.99
1778268675.4365878,160963,-4.61,3.72,6.49,-2.04,0.78,0.88
1778268675.4383006,160985,-4.57,3.70,6.47,-1.82,0.62,1.02
1778268675.496593,161007,-4.52,3.74,6.38,-1.94,0.69,1.02
1778268675.4986172,161029,-4.59,3.66,6.52,-1.87,0.76,0.82
1778268675.4996967,161051,-4.54,3.71,6.40,-2.49,0.62,0.60
1778268675.5575306,161073,-4.60,3.67,6.53,-2.88,0.85,0.82
1778268675.559094,161095,-4.60,3.66,6.48,-2.44,0.84,0.79
1778268675.5597665,161117,-4.57,3.71,6.52,-2.17,0.73,0.87
1778268675.6170444,161139,-4.58,3.74,6.50,-1.76,0.67,0.99
1778268675.6189182,161161,-4.60,3.71,6.49,-2.52,0.62,0.68
1778268675.6203048,161183,-4.56,3.69,6.52,-2.97,0.63,0.65
1778268675.6768606,161205,-4.61,3.70,6.53,-2.05,0.63,0.92
1778268675.6785576,161227,-4.59,3.71,6.50,-2.54,0.76,0.82
1778268675.7373638,161249,-4.62,3.68,6.53,-2.79,0.80,0.71
1778268675.7394328,161271,-4.63,3.69,6.43,-1.73,0.59,0.98
1778268675.7404444,161293,-4.57,3.71,6.52,-2.02,0.76,0.85
1778268675.797701,161315,-4.60,3.71,6.51,-2.21,0.70,0.75
1778268675.7994847,161337,-4.57,3.72,6.43,-2.39,0.69,0.81
1778268675.8003232,161359,-4.64,3.74,6.51,-2.81,0.80,0.74
1778268675.8572261,161381,-4.60,3.71,6.51,-2.84,0.81,0.73
1778268675.8587966,161403,-4.64,3.72,6.51,-2.73,0.58,0.85
1778268675.85974,161425,-4.65,3.68,6.56,-2.41,0.60,0.82
1778268675.917949,161447,-4.56,3.70,6.48,-1.85,0.72,0.90
1778268675.9784112,161469,-4.58,3.75,6.48,-1.79,0.64,0.78
1778268675.9810205,161491,-4.62,3.69,6.47,-2.32,0.67,0.73
1778268675.9826262,161513,-4.60,3.70,6.44,-2.37,0.82,0.95
1778268675.9835403,161535,-4.61,3.69,6.55,-1.92,0.80,0.89
1778268676.0365865,161557,-4.55,3.71,6.42,-1.85,0.77,1.02
1778268676.0382943,161579,-4.56,3.73,6.45,-1.71,0.67,1.01
1778268676.039497,161601,-4.56,3.76,6.56,-1.73,0.68,0.76
1778268676.0967014,161623,-4.57,3.70,6.52,-2.15,0.73,0.91
1778268676.0985403,161645,-4.55,3.78,6.42,-2.48,0.65,0.73
1778268676.1565034,161667,-4.58,3.70,6.46,-2.89,0.68,0.78
1778268676.158262,161689,-4.58,3.72,6.47,-2.88,0.64,0.85
1778268676.159328,161711,-4.59,3.69,6.49,-2.45,0.81,1.01
1778268676.2165728,161733,-4.60,3.65,6.46,-1.92,0.58,0.95
1778268676.2182443,161755,-4.60,3.67,6.39,-1.82,0.74,0.95
1778268676.2192833,161777,-4.55,3.72,6.51,-2.47,0.62,0.80
1778268676.2771437,161799,-4.63,3.69,6.52,-2.56,0.73,0.89
1778268676.2785563,161821,-4.58,3.69,6.55,-2.72,0.66,0.76
1778268676.2794003,161843,-4.61,3.73,6.47,-2.84,0.76,0.67
1778268676.336253,161865,-4.59,3.71,6.52,-2.91,0.64,0.67
1778268676.337846,161887,-4.61,3.67,6.53,-2.26,0.80,1.01
1778268676.3978097,161909,-4.64,3.71,6.49,-1.82,0.69,0.94
1778268676.399421,161931,-4.56,3.71,6.49,-1.80,0.57,1.03
1778268676.4004884,161953,-4.59,3.74,6.50,-2.23,0.79,0.92
1778268676.5164864,161975,-4.63,3.67,6.48,-2.53,0.74,0.98
1778268676.5185127,161997,-4.59,3.71,6.50,-2.69,0.92,0.78
1778268676.5197735,162019,-4.58,3.67,6.50,-2.79,0.89,0.95
1778268676.520759,162041,-4.56,3.71,6.57,-2.69,0.76,0.85
1778268676.5217211,162063,-4.57,3.71,6.52,-1.89,0.48,0.92
1778268676.5227168,162085,-4.66,3.75,6.49,-1.64,0.61,0.87
1778268676.5767722,162107,-4.60,3.67,6.51,-2.18,0.74,0.76
1778268676.578194,162129,-4.57,3.65,6.53,-2.72,0.71,0.66
1778268676.637681,162151,-4.57,3.63,6.53,-2.85,0.59,0.65
1778268676.6392908,162173,-4.62,3.69,6.50,-2.43,0.80,0.89
1778268676.6401827,162195,-4.56,3.75,6.44,-2.20,0.67,1.00
1778268676.6970723,162217,-4.62,3.69,6.53,-1.95,0.60,0.92
1778268676.6989057,162239,-4.62,3.68,6.48,-1.71,0.58,0.95
1778268676.6996672,162261,-4.60,3.68,6.53,-2.36,0.83,0.76
1778268676.7573967,162283,-4.61,3.67,6.50,-2.45,0.66,0.89
1778268676.759572,162305,-4.56,3.65,6.51,-2.82,0.61,0.82
1778268676.8178167,162327,-4.58,3.70,6.47,-2.90,0.79,0.82
1778268676.8761268,162349,-4.60,3.78,6.44,-2.74,0.60,0.65
1778268676.8775587,162371,-4.56,3.70,6.48,-2.15,0.65,0.79
1778268676.878179,162393,-4.57,3.68,6.54,-2.18,0.79,0.94
1778268676.8790731,162415,-4.59,3.68,6.51,-1.86,0.67,0.87
1778268676.8802652,162437,-4.59,3.73,6.56,-2.14,0.60,0.79
1778268676.936342,162459,-4.58,3.69,6.46,-2.19,0.71,0.73
1778268676.9379616,162481,-4.61,3.66,6.44,-2.43,0.66,0.69
1778268676.9388108,162503,-4.59,3.73,6.50,-2.93,0.68,0.85
1778268676.996737,162525,-4.63,3.63,6.52,-2.89,0.70,0.76
1778268676.9982948,162547,-4.58,3.71,6.54,-2.84,0.79,0.72
1778268677.0568182,162569,-4.60,3.65,6.53,-2.50,0.63,0.85
1778268677.0590787,162591,-4.52,3.70,6.54,-2.15,0.63,1.03
1778268677.0603578,162613,-4.59,3.73,6.48,-2.03,0.53,0.90
1778268677.1164749,162635,-4.57,3.65,6.53,-1.89,0.67,0.98
1778268677.1178656,162657,-4.62,3.71,6.54,-2.41,0.64,0.85
1778268677.1186175,162679,-4.57,3.65,6.41,-2.44,0.60,0.82
1778268677.1764596,162701,-4.60,3.67,6.49,-2.21,0.63,0.68
1778268677.1777356,162723,-4.57,3.72,6.50,-2.43,0.78,0.80
1778268677.1785705,162745,-4.61,3.70,6.55,-2.87,0.84,0.70
1778268677.2364945,162767,-4.57,3.70,6.47,-2.76,0.81,0.79
1778268677.238106,162789,-4.58,3.71,6.48,-2.08,0.63,0.89
1778268677.2965631,162811,-4.56,3.69,6.46,-2.06,0.56,0.93
1778268677.2982576,162833,-4.64,3.65,6.47,-2.33,0.46,0.69
1778268677.299293,162855,-4.61,3.61,6.48,-2.39,0.66,0.74
1778268677.35651,162877,-4.57,3.72,6.56,-2.87,0.77,0.79
1778268677.3582454,162899,-4.59,3.69,6.47,-2.53,0.77,0.80
1778268677.3591104,162921,-4.58,3.68,6.52,-1.97,0.65,0.99
1778268677.4162877,162943,-4.61,3.69,6.45,-1.84,0.68,1.04
1778268677.4177034,162965,-4.61,3.71,6.47,-2.15,0.87,0.78
1778268677.4764187,162987,-4.63,3.71,6.51,-2.62,0.63,0.80
1778268677.4777553,163009,-4.57,3.60,6.45,-2.65,0.66,0.86
1778268677.4785879,163031,-4.59,3.71,6.57,-1.80,0.54,0.91
1778268677.536808,163053,-4.59,3.69,6.53,-1.86,0.53,0.94
1778268677.5382614,163075,-4.62,3.67,6.47,-2.02,0.73,0.85
1778268677.5393257,163097,-4.64,3.68,6.48,-2.05,0.60,0.82
1778268677.5969014,163119,-4.55,3.67,6.47,-2.51,0.53,0.72
1778268677.5983672,163141,-4.61,3.68,6.46,-2.87,0.60,0.75
1778268677.5996811,163163,-4.67,3.66,6.40,-2.69,0.69,0.86
1778268677.7167568,163185,-4.56,3.64,6.47,-1.95,0.56,0.92
1778268677.7192516,163207,-4.58,3.73,6.52,-2.42,0.63,0.73
1778268677.720903,163229,-4.58,3.71,6.45,-2.97,0.61,0.65
1778268677.7223947,163251,-4.67,3.67,6.62,-1.71,0.67,1.05
1778268677.7242084,163273,-4.62,3.72,6.45,-1.75,0.81,0.85
1778268677.7770371,163295,-4.56,3.68,6.50,-2.79,0.67,0.74
1778268677.7785923,163317,-4.65,3.63,6.51,-2.92,0.73,0.54
1778268677.7795954,163339,-4.56,3.72,6.49,-2.27,0.73,0.93
1778268677.8365884,163361,-4.66,3.70,6.49,-1.95,0.69,0.92
1778268677.8378434,163383,-4.64,3.72,6.48,-2.33,0.63,0.84
1778268677.8385935,163405,-4.56,3.72,6.49,-2.60,0.66,0.76
1778268677.8973086,163427,-4.55,3.71,6.53,-2.90,0.56,0.73
1778268677.8988314,163449,-4.58,3.65,6.48,-2.86,0.61,0.80
1778268677.9565842,163471,-4.60,3.65,6.41,-2.76,0.56,0.85
1778268677.9583645,163493,-4.62,3.71,6.51,-1.99,0.82,0.82
1778268677.9597692,163515,-4.60,3.69,6.48,-2.01,0.63,0.98
1778268678.0169718,163537,-4.53,3.68,6.45,-1.99,0.60,0.89
1778268678.0183072,163559,-4.62,3.71,6.48,-2.02,0.60,0.99
1778268678.0192285,163581,-4.58,3.65,6.49,-2.83,0.63,0.83
1778268678.0769339,163603,-4.59,3.70,6.53,-2.92,0.69,0.80
1778268678.0789459,163625,-4.58,3.68,6.50,-1.92,0.72,0.88
1778268678.1362984,163647,-4.60,3.65,6.52,-2.40,0.71,0.69
1778268678.1379542,163669,-4.61,3.69,6.55,-2.62,0.69,0.70
1778268678.1391213,163691,-4.63,3.64,6.50,-2.17,0.92,0.89
1778268678.200965,163713,-4.61,3.65,6.50,-2.21,0.81,0.88
1778268678.2034707,163735,-4.64,3.71,6.43,-2.21,0.71,0.89
1778268678.2053049,163757,-4.56,3.70,6.51,-1.82,0.85,0.81
1778268678.2566452,163779,-4.63,3.68,6.50,-1.90,0.67,0.76
1778268678.2579784,163801,-4.63,3.72,6.48,-2.81,0.81,0.62
1778268678.2587783,163823,-4.63,3.70,6.48,-2.91,0.63,0.79
1778268678.316651,163845,-4.58,3.67,6.51,-2.93,0.58,0.82
1778268678.3179762,163867,-4.56,3.76,6.54,-3.02,0.73,0.78
1778268678.3766708,163889,-4.62,3.74,6.39,-2.53,0.71,0.89
1778268678.3779697,163911,-4.60,3.72,6.48,-2.00,0.76,0.98
1778268678.3790085,163933,-4.53,3.68,6.52,-2.08,0.65,1.05
1778268678.4374802,163955,-4.58,3.66,6.50,-1.73,0.69,0.86
1778268678.4383824,163977,-4.59,3.64,6.51,-1.69,0.62,1.01
1778268678.4395163,163999,-4.59,3.68,6.49,-1.95,0.53,0.86
1778268678.4980023,164021,-4.56,3.70,6.52,-1.91,0.68,0.79
1778268678.4994614,164043,-4.59,3.65,6.50,-1.95,0.74,0.70
1778268678.500692,164065,-4.57,3.70,6.49,-2.63,0.84,0.82
1778268678.55657,164087,-4.59,3.64,6.53,-2.78,0.89,0.76
1778268678.5583482,164109,-4.62,3.65,6.49,-1.91,0.76,0.91
1778268678.6165833,164131,-4.58,3.75,6.51,-1.76,0.53,0.84
1778268678.6189897,164153,-4.62,3.72,6.50,-2.37,0.66,0.84
1778268678.6207023,164175,-4.58,3.66,6.50,-2.33,0.71,0.66
1778268678.6768024,164197,-4.56,3.72,6.49,-2.46,0.60,0.71
1778268678.6783044,164219,-4.63,3.71,6.44,-2.85,0.67,0.77
1778268678.6793602,164241,-4.61,3.69,6.50,-2.87,0.73,0.73
1778268678.7373366,164263,-4.60,3.71,6.49,-3.11,0.66,0.65
1778268678.7390907,164285,-4.57,3.71,6.57,-1.81,0.55,0.95
1778268678.7976587,164307,-4.62,3.71,6.51,-2.17,0.60,0.85
1778268678.7996016,164329,-4.68,3.67,6.52,-2.49,0.69,0.85
1778268678.8008971,164351,-4.58,3.70,6.47,-2.82,0.86,0.84
1778268678.8565128,164373,-4.58,3.69,6.47,-2.57,0.85,0.76
1778268678.9163346,164395,-4.64,3.64,6.41,-1.93,0.73,0.92
1778268678.9174538,164417,-4.59,3.71,6.51,-1.92,0.73,0.98
1778268678.9182746,164439,-4.56,3.70,6.44,-1.85,0.70,0.77
1778268678.9191566,164461,-4.61,3.68,6.47,-2.47,0.69,0.74
1778268678.9199784,164483,-4.60,3.69,6.49,-2.89,0.85,0.93
1778268678.9755106,164505,-4.63,3.70,6.54,-2.76,0.69,0.91
1778268678.976676,164527,-4.60,3.71,6.47,-2.30,0.73,0.93
1778268679.0357015,164549,-4.56,3.73,6.44,-1.96,0.69,0.98
1778268679.0373642,164571,-4.58,3.68,6.53,-1.80,0.60,0.89
1778268679.0384374,164593,-4.57,3.67,6.48,-2.01,0.71,0.85
1778268679.0967066,164615,-4.61,3.68,6.45,-2.21,0.64,0.77
1778268679.0984025,164637,-4.55,3.77,6.53,-2.73,0.64,0.81
1778268679.0993023,164659,-4.61,3.66,6.53,-2.91,0.76,0.65
1778268679.1568441,164681,-4.57,3.69,6.43,-1.99,0.72,0.89
1778268679.1584318,164703,-4.63,3.70,6.49,-1.95,0.61,1.02
1778268679.1592846,164725,-4.64,3.72,6.50,-2.27,0.76,0.83
1778268679.2169142,164747,-4.61,3.71,6.46,-2.71,0.67,0.75
1778268679.2187276,164769,-4.53,3.68,6.54,-2.83,0.85,0.79
1778268679.276364,164791,-4.55,3.70,6.50,-2.69,0.63,0.80
1778268679.2780888,164813,-4.56,3.69,6.53,-2.28,0.72,0.90
1778268679.2791011,164835,-4.62,3.74,6.49,-2.02,0.76,0.95
1778268679.3378973,164857,-4.59,3.68,6.49,-2.40,0.70,0.70
1778268679.3983753,164879,-4.56,3.68,6.46,-2.63,0.56,0.63
1778268679.3999867,164901,-4.56,3.68,6.50,-2.75,0.70,0.86
1778268679.400988,164923,-4.58,3.64,6.48,-2.76,0.78,0.74
1778268679.4016595,164945,-4.56,3.68,6.54,-2.95,0.76,0.76
1778268679.402354,164967,-4.58,3.70,6.43,-2.75,0.70,0.79
1778268679.4587896,164989,-4.59,3.70,6.44,-2.50,0.72,0.89
1778268679.4606855,165011,-4.53,3.67,6.44,-2.12,0.76,0.81
1778268679.5168865,165033,-4.53,3.72,6.50,-2.12,0.67,0.95
1778268679.5185878,165055,-4.56,3.67,6.44,-2.80,0.58,0.79
1778268679.5195785,165077,-4.53,3.76,6.44,-2.66,0.85,0.83
1778268679.5995972,165099,-4.55,3.69,6.45,-2.85,0.73,0.79
1778268679.6016154,165121,-4.55,3.65,6.53,-2.72,0.66,0.66
1778268679.6034484,165143,-4.61,3.65,6.42,-2.72,0.76,0.83
1778268679.6372278,165165,-4.60,3.70,6.57,-2.37,0.87,0.82
1778268679.6389024,165187,-4.55,3.68,6.50,-1.76,0.79,0.78
1778268679.6968396,165209,-4.57,3.67,6.49,-2.78,0.63,0.85
1778268679.6983814,165231,-4.61,3.69,6.54,-2.56,0.80,0.93
1778268679.6993177,165253,-4.56,3.68,6.51,-2.15,0.70,0.93
1778268679.756752,165275,-4.56,3.73,6.57,-2.08,0.72,0.95
1778268679.7586975,165297,-4.57,3.65,6.50,-2.41,0.66,0.69
1778268679.7595575,165319,-4.62,3.71,6.50,-2.79,0.66,0.72
1778268679.8166552,165341,-4.56,3.72,6.51,-2.76,0.91,0.90
1778268679.8184717,165363,-4.58,3.66,6.42,-2.15,0.63,0.89
1778268679.8199053,165385,-4.57,3.66,6.51,-1.89,0.67,0.82
1778268679.8767335,165407,-4.58,3.65,6.50,-2.27,0.56,0.71
1778268679.878777,165429,-4.56,3.71,6.45,-2.61,0.66,0.80
1778268679.9364843,165451,-4.57,3.66,6.49,-2.85,0.73,0.80
1778268679.9381855,165473,-4.59,3.68,6.54,-2.15,0.71,1.00
1778268679.9398015,165495,-4.60,3.75,6.42,-1.83,0.72,0.98
1778268679.998131,165517,-4.60,3.68,6.47,-2.43,0.66,0.74
1778268679.999816,165539,-4.56,3.73,6.51,-2.79,0.76,0.71
1778268680.0010033,165561,-4.55,3.70,6.51,-2.83,0.67,0.74
1778268680.056454,165583,-4.58,3.73,6.54,-2.34,0.55,0.78
1778268680.0579824,165605,-4.64,3.64,6.51,-2.02,0.57,0.88
1778268680.116858,165627,-4.55,3.67,6.51,-1.96,0.72,0.93
1778268680.1188138,165649,-4.54,3.67,6.46,-1.79,0.50,0.92
1778268680.1202757,165671,-4.65,3.67,6.48,-1.74,0.55,0.79
1778268680.176433,165693,-4.57,3.70,6.50,-1.85,0.77,0.97
1778268680.1779714,165715,-4.56,3.71,6.51,-2.63,0.70,0.76
1778268680.178799,165737,-4.59,3.68,6.55,-2.80,0.79,0.88
1778268680.2361093,165759,-4.61,3.71,6.45,-2.02,0.83,0.94
1778268680.2376316,165781,-4.59,3.66,6.51,-2.05,0.59,0.94
1778268680.238771,165803,-4.61,3.71,6.53,-1.92,0.56,0.92
1778268680.2965877,165825,-4.61,3.70,6.47,-2.47,0.61,0.85
1778268680.2982476,165847,-4.59,3.61,6.48,-2.59,0.46,0.92
1778268680.356801,165869,-4.57,3.69,6.55,-2.64,0.48,0.79
1778268680.3584993,165891,-4.56,3.73,6.50,-3.07,0.44,0.84
1778268680.35975,165913,-4.65,3.64,6.56,-2.69,0.24,0.77
1778268680.4164815,165935,-4.58,3.64,6.54,-2.15,0.27,1.02
1778268680.4177296,165957,-4.55,3.67,6.49,-1.92,0.37,1.02
1778268680.4771788,165979,-4.49,3.69,6.53,-1.73,0.44,0.96
1778268680.4789577,166001,-4.59,3.68,6.50,-1.49,0.50,1.02
1778268680.480534,166023,-4.53,3.73,6.50,-1.63,0.63,0.99
1778268680.4817822,166045,-4.55,3.73,6.43,-2.34,0.66,1.11
1778268680.5358882,166067,-4.63,3.72,6.53,-2.46,0.65,1.18
1778268680.5374146,166089,-4.58,3.68,6.53,-2.11,0.65,1.09
1778268680.5970657,166111,-4.58,3.73,6.41,-1.99,0.72,1.04
1778268680.5989428,166133,-4.55,3.69,6.51,-1.58,0.69,0.96
1778268680.6000278,166155,-4.54,3.73,6.50,-1.78,0.77,0.92
1778268680.6562555,166177,-4.56,3.73,6.50,-1.66,1.01,0.87
1778268680.6579554,166199,-4.57,3.69,6.51,-1.78,1.06,0.78
1778268680.658855,166221,-4.56,3.69,6.47,-1.79,1.02,1.11
1778268680.716534,166243,-4.58,3.75,6.48,-1.96,0.97,0.98
1778268680.71815,166265,-4.62,3.72,6.46,-2.11,0.86,1.15
1778268680.783299,166287,-4.60,3.74,6.46,-1.69,0.90,0.95
1778268680.7850683,166309,-4.61,3.73,6.52,-1.98,0.63,0.89
1778268680.7860396,166331,-4.66,3.69,6.44,-2.15,0.72,0.87
1778268680.836064,166353,-4.62,3.71,6.49,-2.64,0.55,0.56
1778268680.8384154,166375,-4.62,3.69,6.49,-2.78,0.59,0.66
1778268680.8401182,166397,-4.58,3.68,6.48,-2.92,0.64,0.51
1778268680.9015076,166419,-4.56,3.71,6.51,-2.79,0.84,0.71
1778268680.9039428,166441,-4.62,3.70,6.50,-2.25,1.02,1.05
1778268680.9058428,166463,-4.61,3.74,6.48,-1.64,1.08,0.99
1778268680.9564626,166485,-4.64,3.71,6.48,-1.80,1.08,0.96
1778268680.9584424,166507,-4.58,3.72,6.42,-2.60,1.01,0.66
1778268681.0170863,166529,-4.62,3.76,6.49,-2.71,0.98,0.71
1778268681.0190616,166551,-4.56,3.71,6.51,-2.50,0.91,0.89
1778268681.0203247,166573,-4.60,3.76,6.46,-1.96,0.90,1.11
1778268681.0790305,166595,-4.55,3.71,6.52,-1.81,0.79,0.87
1778268681.0822277,166617,-4.59,3.72,6.46,-2.30,0.83,0.81
1778268681.0838208,166639,-4.62,3.69,6.53,-2.79,0.80,0.73
1778268681.1367724,166661,-4.62,3.71,6.48,-3.00,0.71,0.67
1778268681.1380672,166683,-4.57,3.76,6.47,-2.82,0.69,0.53
1778268681.139001,166705,-4.60,3.71,6.52,-2.94,0.71,0.57
1778268681.1957426,166727,-4.58,3.76,6.48,-3.30,0.70,0.63
1778268681.1975634,166749,-4.60,3.72,6.45,-3.04,0.61,0.70
1778268681.2563171,166771,-4.61,3.70,6.54,-2.23,0.66,0.87
1778268681.2576044,166793,-4.62,3.69,6.48,-2.13,0.69,0.89
1778268681.258493,166815,-4.59,3.66,6.45,-2.04,0.61,0.76
1778268681.3165033,166837,-4.61,3.71,6.46,-2.58,0.62,0.79
1778268681.3179862,166859,-4.56,3.71,6.55,-2.58,0.83,0.79
1778268681.3188508,166881,-4.60,3.73,6.51,-2.13,0.85,1.15
1778268681.3763802,166903,-4.59,3.69,6.44,-2.15,0.78,0.92
1778268681.3776996,166925,-4.56,3.72,6.48,-2.05,1.01,0.95
1778268681.4363947,166947,-4.57,3.69,6.51,-1.69,0.86,0.95
1778268681.4378626,166969,-4.55,3.69,6.48,-1.87,0.64,1.02
1778268681.438682,166991,-4.58,3.78,6.46,-2.16,0.61,0.82
1778268681.4970417,167013,-4.54,3.69,6.50,-2.73,0.51,0.61
1778268681.4988961,167035,-4.61,3.74,6.49,-2.86,0.63,0.75
1778268681.4998114,167057,-4.54,3.76,6.49,-3.02,0.54,0.66
1778268681.5566015,167079,-4.59,3.74,6.43,-3.11,0.62,0.64
1778268681.616698,167101,-4.60,3.72,6.49,-3.00,0.63,0.85
1778268681.6185331,167123,-4.56,3.68,6.48,-2.31,0.71,1.03
1778268681.6200442,167145,-4.62,3.77,6.48,-1.76,0.66,0.86
1778268681.6210246,167167,-4.61,3.66,6.45,-1.89,0.60,0.85
1778268681.676199,167189,-4.53,3.75,6.46,-2.69,0.85,0.83
1778268681.6780174,167211,-4.60,3.71,6.53,-2.85,0.73,0.72
1778268681.6791773,167233,-4.59,3.72,6.53,-2.61,0.77,0.69
1778268681.7365606,167255,-4.56,3.76,6.49,-2.30,0.58,0.91
1778268681.7382271,167277,-4.62,3.71,6.52,-2.22,0.61,0.97
1778268681.7395566,167299,-4.59,3.70,6.45,-1.93,0.53,0.86
1778268681.796405,167321,-4.62,3.73,6.48,-1.98,0.66,0.88
1778268681.8569922,167343,-4.63,3.70,6.41,-2.45,0.56,0.84
1778268681.858904,167365,-4.62,3.67,6.49,-2.75,0.64,0.68
1778268681.8599708,167387,-4.59,3.75,6.48,-2.66,0.65,0.92
1778268681.8608966,167409,-4.55,3.73,6.44,-2.37,0.79,0.95
1778268681.9163387,167431,-4.57,3.74,6.50,-1.69,0.75,0.85
1778268681.9180963,167453,-4.61,3.72,6.55,-1.68,0.83,0.96
1778268681.9191198,167475,-4.56,3.73,6.54,-2.35,0.71,0.65
1778268681.9764702,167497,-4.62,3.68,6.49,-2.77,0.78,0.76
1778268681.9780307,167519,-4.61,3.68,6.41,-2.95,0.78,0.70
1778268681.9788394,167541,-4.59,3.67,6.39,-2.67,0.75,0.83
1778268682.0364609,167563,-4.57,3.70,6.44,-2.52,0.64,0.89
1778268682.0380208,167585,-4.61,3.69,6.43,-2.05,0.63,0.95
1778268682.0962868,167607,-4.62,3.78,6.54,-1.79,0.59,0.84
1778268682.097918,167629,-4.59,3.73,6.56,-1.92,0.74,0.69
1778268682.0989766,167651,-4.53,3.68,6.52,-2.01,0.68,0.86
1778268682.156395,167673,-4.63,3.68,6.57,-2.09,0.80,0.72
1778268682.157885,167695,-4.61,3.72,6.55,-2.66,0.69,0.73
1778268682.158926,167717,-4.55,3.68,6.47,-3.04,0.69,0.53
1778268682.2164817,167739,-4.57,3.70,6.46,-2.91,0.77,0.75
1778268682.2774537,167761,-4.59,3.71,6.51,-2.47,0.67,1.02
1778268682.2793386,167783,-4.62,3.69,6.50,-2.34,0.60,0.95
1778268682.2808943,167805,-4.58,3.68,6.52,-2.23,0.76,0.95
1778268682.281861,167827,-4.55,3.76,6.49,-1.84,0.50,0.99
1778268682.3366828,167849,-4.61,3.72,6.50,-2.31,0.66,0.76
1778268682.3385167,167871,-4.59,3.76,6.51,-2.92,0.60,0.79
1778268682.3400936,167893,-4.49,3.71,6.49,-2.78,0.65,0.71
1778268682.3966067,167915,-4.61,3.72,6.47,-2.75,0.79,0.64
1778268682.3985233,167937,-4.56,3.72,6.53,-2.88,0.63,0.82
1778268682.3996131,167959,-4.59,3.71,6.47,-2.79,0.63,0.80
1778268682.456422,167981,-4.56,3.73,6.43,-2.31,0.73,0.93
1778268682.45803,168003,-4.56,3.66,6.51,-1.86,0.71,0.95
1778268682.4591331,168025,-4.60,3.71,6.48,-1.83,0.69,1.00
1778268682.5166068,168047,-4.58,3.72,6.46,-1.98,0.72,0.78
1778268682.5184078,168069,-4.56,3.69,6.49,-1.80,0.63,0.90
1778268682.5764117,168091,-4.65,3.69,6.51,-2.76,0.72,0.94
1778268682.5784945,168113,-4.58,3.71,6.40,-2.90,0.68,0.64
1778268682.57987,168135,-4.58,3.68,6.46,-2.96,0.69,0.77
1778268682.6363053,168157,-4.59,3.76,6.52,-2.82,0.75,0.79
1778268682.6390812,168179,-4.62,3.68,6.45,-2.74,0.79,0.83
1778268682.640178,168201,-4.59,3.70,6.43,-2.58,0.74,0.89
1778268682.6975334,168223,-4.60,3.72,6.48,-1.80,0.66,1.00
1778268682.6989107,168245,-4.62,3.65,6.39,-2.69,0.87,0.85
1778268682.7573218,168267,-4.49,3.68,6.49,-2.31,0.82,1.04
1778268682.7589438,168289,-4.60,3.69,6.46,-2.22,0.82,0.92
1778268682.7606242,168311,-4.60,3.70,6.47,-1.67,0.82,0.91
1778268682.8163233,168333,-4.59,3.72,6.39,-1.85,0.66,0.88
1778268682.8776476,168355,-4.60,3.72,6.48,-2.01,0.89,0.89
1778268682.8791304,168377,-4.57,3.75,6.49,-2.58,0.55,0.75
1778268682.8800714,168399,-4.62,3.67,6.41,-2.53,0.60,0.79
1778268682.8809886,168421,-4.58,3.71,6.43,-2.82,0.71,0.82
1778268682.8820276,168443,-4.54,3.74,6.48,-2.44,0.79,0.90
1778268682.9365492,168465,-4.57,3.78,6.52,-1.88,0.79,0.99
1778268682.996135,168487,-4.63,3.68,6.45,-2.06,0.74,0.94
1778268682.998506,168509,-4.61,3.70,6.50,-2.40,0.60,0.82
1778268682.9997106,168531,-4.65,3.71,6.51,-2.81,0.79,0.72
1778268683.0009575,168553,-4.54,3.72,6.46,-2.52,0.74,1.02
1778268683.0560846,168575,-4.63,3.70,6.47,-2.46,0.63,0.85
1778268683.0575593,168597,-4.56,3.77,6.50,-1.77,0.86,0.90
1778268683.0584548,168619,-4.57,3.71,6.49,-1.99,0.74,0.96
1778268683.1163113,168641,-4.60,3.79,6.52,-1.69,0.51,0.86
1778268683.1182413,168663,-4.51,3.68,6.51,-2.36,0.69,0.67
1778268683.1192791,168685,-4.58,3.70,6.40,-3.03,0.88,0.62
1778268683.1764398,168707,-4.64,3.70,6.52,-2.99,0.73,0.79
1778268683.1779447,168729,-4.62,3.68,6.47,-2.53,0.50,0.82
1778268683.2368422,168751,-4.60,3.68,6.42,-2.16,0.66,1.04
1778268683.2385843,168773,-4.60,3.74,6.49,-1.96,0.76,1.14
1778268683.2396765,168795,-4.60,3.72,6.50,-1.98,0.73,0.97
1778268683.2999516,168817,-4.56,3.69,6.45,-1.74,0.61,0.92
1778268683.3012986,168839,-4.61,3.72,6.53,-2.18,0.63,0.73
1778268683.3025105,168861,-4.53,3.74,6.49,-2.52,0.76,0.86
1778268683.3559341,168883,-4.59,3.72,6.49,-2.66,0.89,0.67
1778268683.357678,168905,-4.63,3.69,6.56,-2.64,0.62,0.72
1778268683.4176078,168927,-4.59,3.66,6.40,-2.63,0.84,0.80
1778268683.4193897,168949,-4.58,3.76,6.43,-2.02,0.64,0.92
1778268683.4211478,168971,-4.57,3.64,6.47,-1.82,0.80,1.06
1778268683.4757464,168993,-4.60,3.67,6.45,-1.77,0.62,1.11
1778268683.4771128,169015,-4.58,3.75,6.50,-1.76,0.59,0.80
1778268683.4776359,169037,-4.56,3.70,6.53,-1.89,0.64,0.98
1778268683.5361378,169059,-4.61,3.75,6.45,-2.07,0.57,0.89
1778268683.5376954,169081,-4.64,3.71,6.47,-2.47,0.54,0.83
1778268683.5385559,169103,-4.56,3.68,6.42,-2.81,0.59,0.85
1778268683.5962706,169125,-4.64,3.71,6.49,-2.38,0.61,0.75
1778268683.5982234,169147,-4.59,3.67,6.49,-2.27,0.72,0.85
1778268683.656395,169169,-4.59,3.66,6.43,-1.89,0.73,0.91
1778268683.658031,169191,-4.63,3.70,6.51,-1.84,0.73,1.04
1778268683.6591449,169213,-4.62,3.74,6.50,-1.94,0.76,0.87
1778268683.718477,169235,-4.56,3.69,6.44,-2.24,0.69,0.74
1778268683.7197962,169257,-4.57,3.74,6.49,-2.82,0.69,0.76
1778268683.7205582,169279,-4.61,3.75,6.50,-2.76,0.64,0.84
1778268683.778257,169301,-4.63,3.71,6.50,-1.85,0.69,0.90
1778268683.7804267,169323,-4.64,3.69,6.46,-2.45,0.61,0.76
1778268683.7816083,169345,-4.61,3.73,6.40,-2.75,0.70,0.66
1778268683.8381004,169367,-4.59,3.73,6.50,-2.79,0.78,0.74
1778268683.8398561,169389,-4.60,3.63,6.41,-2.49,0.69,0.79
1778268683.897039,169411,-4.60,3.68,6.47,-2.71,0.58,0.83
1778268683.8989897,169433,-4.62,3.71,6.48,-2.28,0.79,0.81
1778268683.899882,169455,-4.60,3.71,6.47,-2.00,0.57,0.89
1778268683.9564497,169477,-4.61,3.73,6.45,-1.87,0.71,0.95
1778268684.0169718,169499,-4.58,3.73,6.50,-1.78,0.37,1.02
1778268684.0188527,169521,-4.58,3.70,6.46,-2.60,0.85,0.64
1778268684.0198889,169543,-4.62,3.72,6.52,-2.75,0.64,0.67
1778268684.020705,169565,-4.63,3.74,6.43,-2.85,0.87,0.74
1778268684.0215805,169587,-4.60,3.71,6.48,-2.55,0.60,0.84
1778268684.0782444,169609,-4.58,3.74,6.50,-2.35,0.67,0.95
1778268684.0803485,169631,-4.65,3.65,6.48,-1.98,0.69,1.02
1778268684.1376457,169653,-4.52,3.76,6.44,-1.84,0.67,0.86
1778268684.1396017,169675,-4.54,3.66,6.41,-1.66,0.79,1.12
1778268684.1414037,169697,-4.61,3.70,6.47,-2.20,0.60,0.84
1778268684.1980174,169719,-4.58,3.75,6.51,-2.80,0.63,0.83
1778268684.199595,169741,-4.55,3.67,6.46,-2.55,0.70,0.81
1778268684.200578,169763,-4.62,3.69,6.47,-2.11,0.56,0.93
1778268684.2566814,169785,-4.60,3.71,6.44,-2.13,0.60,0.69
1778268684.2587733,169807,-4.60,3.70,6.48,-2.57,0.66,0.66
1778268684.3181953,169829,-4.61,3.76,6.48,-2.88,0.77,0.63
1778268684.320028,169851,-4.56,3.68,6.47,-2.90,0.63,0.75
1778268684.3210263,169873,-4.62,3.71,6.47,-2.99,0.70,0.71
1778268684.3766677,169895,-4.56,3.71,6.47,-2.95,0.76,0.98
1778268684.4366794,169917,-4.67,3.75,6.40,-2.09,0.85,0.95
1778268684.4383438,169939,-4.63,3.72,6.48,-1.92,0.79,0.92
1778268684.4395058,169961,-4.65,3.69,6.48,-1.85,0.78,0.99
1778268684.4403415,169983,-4.66,3.72,6.43,-2.15,0.82,0.75
1778268684.4416442,170005,-4.62,3.71,6.51,-2.50,0.63,0.67
1778268684.499167,170027,-4.53,3.70,6.50,-2.95,0.64,0.73
1778268684.5004826,170049,-4.57,3.67,6.54,-2.77,0.61,0.82
1778268684.5567114,170071,-4.61,3.72,6.44,-2.63,0.77,0.90
1778268684.5588942,170093,-4.63,3.72,6.50,-2.43,0.73,0.91
1778268684.559738,170115,-4.58,3.71,6.51,-2.66,0.78,0.58
1778268684.61655,170137,-4.62,3.72,6.57,-2.80,0.83,0.69
1778268684.6182134,170159,-4.58,3.71,6.52,-2.76,0.79,0.85
1778268684.619615,170181,-4.64,3.71,6.44,-2.46,0.87,0.79
1778268684.6766582,170203,-4.62,3.70,6.43,-1.69,0.68,0.98
1778268684.7370386,170225,-4.57,3.70,6.46,-2.02,0.66,0.96
1778268684.797336,170247,-4.61,3.68,6.43,-2.08,0.82,0.90
1778268684.7993987,170269,-4.63,3.70,6.50,-2.62,0.95,0.61
1778268684.8003192,170291,-4.62,3.67,6.49,-2.96,0.88,0.78
1778268684.8011687,170313,-4.59,3.74,6.43,-2.69,0.79,0.89
1778268684.8581316,170335,-4.61,3.69,6.55,-2.53,0.69,0.85
1778268684.8603723,170357,-4.61,3.69,6.44,-2.42,0.66,1.05
1778268684.861451,170379,-4.59,3.71,6.46,-1.85,0.54,0.94
1778268684.8623354,170401,-4.59,3.69,6.49,-1.85,0.73,0.85
1778268684.864935,170423,-4.57,3.73,6.41,-2.72,0.64,0.89
1778268684.9199128,170445,-4.57,3.68,6.45,-2.82,0.73,0.63
1778268684.9215586,170467,-4.59,3.69,6.51,-3.00,0.73,0.64
1778268684.9777584,170489,-4.59,3.68,6.55,-2.18,0.65,0.91
1778268684.9791505,170511,-4.61,3.70,6.51,-1.86,0.70,0.96
1778268684.9805467,170533,-4.59,3.66,6.51,-2.42,0.69,0.87
1778268685.0364869,170555,-4.64,3.69,6.48,-2.55,0.78,0.83
1778268685.0379436,170577,-4.54,3.72,6.46,-2.76,0.53,0.90
1778268685.038969,170599,-4.60,3.71,6.47,-2.82,0.50,0.79
1778268685.0971944,170621,-4.57,3.70,6.50,-2.23,0.70,0.85
1778268685.0986924,170643,-4.55,3.69,6.46,-1.73,0.56,1.03
1778268685.09995,170665,-4.63,3.72,6.44,-2.19,0.73,0.75
1778268685.1566782,170687,-4.59,3.76,6.51,-2.62,0.56,0.69
1778268685.2164457,170709,-4.55,3.69,6.49,-2.89,0.72,0.89
1778268685.2184417,170731,-4.58,3.73,6.53,-2.85,0.67,0.68
1778268685.21943,170753,-4.58,3.75,6.44,-2.95,0.76,0.73
1778268685.22032,170775,-4.61,3.74,6.57,-2.72,0.69,0.98
1778268685.2766387,170797,-4.64,3.74,6.39,-2.18,0.70,0.98
1778268685.2785842,170819,-4.60,3.70,6.44,-1.98,0.67,1.14
1778268685.2795146,170841,-4.60,3.71,6.52,-2.24,0.55,0.82
1778268685.3368042,170863,-4.58,3.67,6.43,-2.63,0.68,0.68
1778268685.338446,170885,-4.61,3.71,6.44,-2.79,0.70,0.67
1778268685.3967457,170907,-4.64,3.72,6.48,-2.73,0.65,0.59
1778268685.39856,170929,-4.59,3.69,6.45,-2.85,0.73,0.79
1778268685.3993971,170951,-4.57,3.76,6.49,-1.78,0.68,0.80
1778268685.4565487,170973,-4.63,3.68,6.46,-1.82,0.65,0.82
1778268685.458143,170995,-4.57,3.74,6.49,-1.73,0.60,0.99
1778268685.4589174,171017,-4.55,3.70,6.48,-1.95,0.59,0.89
1778268685.5162518,171039,-4.63,3.63,6.56,-1.76,0.79,0.79
1778268685.5177119,171061,-4.58,3.67,6.47,-2.82,0.79,0.63
1778268685.5185556,171083,-4.61,3.66,6.54,-2.80,0.72,0.80
1778268685.5761642,171105,-4.56,3.66,6.49,-2.45,0.80,0.79
1778268685.5779722,171127,-4.58,3.76,6.42,-2.60,0.73,0.81
1778268685.6364644,171149,-4.57,3.67,6.47,-1.74,0.88,0.91
1778268685.6379566,171171,-4.57,3.74,6.46,-1.91,0.79,0.98
1778268685.6394317,171193,-4.62,3.69,6.47,-2.09,0.52,0.83
1778268685.6954863,171215,-4.57,3.69,6.51,-2.91,0.64,0.64
1778268685.6967466,171237,-4.60,3.67,6.47,-2.95,0.54,0.88
1778268685.6977968,171259,-4.56,3.68,6.48,-2.41,0.46,0.75
1778268685.7589703,171281,-4.58,3.70,6.46,-2.09,0.47,0.84
1778268685.7616522,171303,-4.59,3.73,6.50,-2.12,0.53,0.72
1778268685.7625284,171325,-4.53,3.67,6.49,-2.50,0.66,0.66
1778268685.816763,171347,-4.56,3.71,6.51,-2.66,0.79,0.79
1778268685.8185787,171369,-4.59,3.71,6.44,-2.86,0.69,0.87
1778268685.877601,171391,-4.56,3.74,6.50,-2.58,0.80,0.77
1778268685.8796735,171413,-4.58,3.71,6.51,-2.14,0.77,1.00
1778268685.8828754,171435,-4.62,3.72,6.55,-1.69,0.73,1.02
1778268685.9374218,171457,-4.60,3.76,6.57,-1.67,0.79,0.90
1778268685.9415414,171479,-4.58,3.68,6.40,-2.50,0.60,0.89
1778268685.944039,171501,-4.58,3.73,6.41,-2.85,0.62,0.73
1778268685.9966443,171523,-4.63,3.77,6.63,-2.94,0.72,0.73
1778268685.9985104,171545,-4.63,3.72,6.50,-2.78,0.66,0.86
1778268686.0570557,171567,-4.61,3.67,6.58,-2.40,0.72,0.85
1778268686.0595672,171589,-4.57,3.65,6.49,-2.09,0.68,0.93
1778268686.060607,171611,-4.60,3.74,6.49,-1.67,0.68,0.84
1778268686.1166205,171633,-4.57,3.69,6.49,-1.85,0.82,0.83
1778268686.118537,171655,-4.61,3.74,6.51,-1.94,0.74,0.82
1778268686.119348,171677,-4.62,3.72,6.41,-2.80,0.83,0.73
1778268686.1767843,171699,-4.61,3.75,6.43,-2.75,0.84,0.68
1778268686.1783338,171721,-4.55,3.68,6.40,-2.45,0.81,0.94
1778268686.1794455,171743,-4.63,3.70,6.42,-1.82,0.73,0.99
1778268686.2364416,171765,-4.63,3.77,6.45,-1.76,0.63,1.02
1778268686.2379847,171787,-4.56,3.69,6.40,-1.75,0.68,1.02
1778268686.296861,171809,-4.60,3.73,6.42,-2.34,0.62,0.79
1778268686.2986188,171831,-4.56,3.68,6.49,-2.89,0.68,0.75
1778268686.299644,171853,-4.59,3.73,6.52,-2.97,0.79,0.86
1778268686.3572247,171875,-4.60,3.69,6.48,-2.89,0.73,0.59
1778268686.3587322,171897,-4.51,3.74,6.50,-2.07,0.69,1.00
1778268686.3595955,171919,-4.66,3.66,6.55,-1.86,0.63,0.85
1778268686.4170713,171941,-4.61,3.68,6.51,-1.91,0.60,0.89
1778268686.418769,171963,-4.61,3.69,6.46,-2.86,0.79,0.63
1778268686.4194531,171985,-4.59,3.70,6.49,-2.81,0.66,0.87
1778268686.4765215,172007,-4.64,3.69,6.49,-2.57,0.72,0.97
1778268686.5375447,172029,-4.58,3.66,6.49,-1.89,0.78,0.79
1778268686.5395172,172051,-4.63,3.77,6.49,-1.81,0.95,0.87
1778268686.5405812,172073,-4.59,3.73,6.48,-2.14,0.65,0.86
1778268686.541436,172095,-4.60,3.72,6.47,-2.57,0.75,0.75
1778268686.5969226,172117,-4.61,3.69,6.47,-2.60,0.63,0.73
1778268686.5985713,172139,-4.61,3.67,6.45,-3.14,0.79,0.71
1778268686.5998795,172161,-4.67,3.72,6.50,-1.92,0.56,0.90
1778268686.657076,172183,-4.56,3.67,6.48,-1.75,0.69,0.95
1778268686.6586268,172205,-4.62,3.68,6.52,-1.93,0.70,0.83
1778268686.7165947,172227,-4.61,3.69,6.41,-2.66,0.95,0.79
1778268686.7179725,172249,-4.63,3.70,6.45,-2.69,0.82,0.83
1778268686.7187345,172271,-4.57,3.64,6.54,-2.58,0.79,0.69
1778268686.7769704,172293,-4.59,3.71,6.48,-2.41,0.76,0.76
1778268686.7791443,172315,-4.61,3.71,6.48,-2.21,0.88,0.98
1778268686.7811942,172337,-4.55,3.68,6.51,-1.84,0.61,0.95
1778268686.8365405,172359,-4.57,3.67,6.46,-1.81,0.73,1.02
1778268686.8381858,172381,-4.58,3.67,6.52,-1.95,0.56,0.88
1778268686.8388836,172403,-4.63,3.72,6.47,-2.65,0.56,0.69
1778268686.8972604,172425,-4.66,3.68,6.46,-2.79,0.80,0.66
1778268686.9568572,172447,-4.55,3.72,6.48,-2.31,0.56,0.79
1778268686.9584696,172469,-4.63,3.66,6.54,-1.89,0.72,0.75
1778268686.9600396,172491,-4.62,3.68,6.38,-1.97,0.63,0.85
1778268686.9617417,172513,-4.60,3.67,6.47,-2.24,0.87,0.84
1778268687.0164523,172535,-4.63,3.71,6.56,-2.68,0.74,0.79
1778268687.0179358,172557,-4.60,3.72,6.48,-3.02,0.75,0.79
1778268687.0189502,172579,-4.64,3.75,6.47,-2.72,0.76,0.85
1778268687.0776265,172601,-4.62,3.70,6.52,-2.60,0.71,0.78
1778268687.0832932,172623,-4.58,3.70,6.50,-1.88,0.79,0.94
1778268687.086142,172645,-4.63,3.69,6.47,-1.99,0.66,0.95
1778268687.1366794,172667,-4.57,3.74,6.52,-2.47,0.70,0.93
1778268687.1384883,172689,-4.63,3.67,6.47,-2.32,0.63,0.89
1778268687.197981,172711,-4.58,3.71,6.45,-2.92,0.85,0.79
1778268687.1995864,172733,-4.53,3.73,6.54,-2.85,0.74,0.82
1778268687.2009456,172755,-4.63,3.67,6.47,-2.23,0.69,0.95
1778268687.2563803,172777,-4.60,3.74,6.50,-2.52,0.63,0.73
1778268687.258136,172799,-4.58,3.68,6.47,-2.74,0.65,0.63
1778268687.2590485,172821,-4.65,3.72,6.49,-2.63,0.95,0.85
1778268687.316435,172843,-4.60,3.68,6.56,-2.41,0.83,0.73
1778268687.3767028,172865,-4.60,3.67,6.50,-2.15,0.66,0.77
1778268687.3785443,172887,-4.52,3.71,6.52,-1.72,0.90,0.79
1778268687.3796847,172909,-4.62,3.72,6.46,-1.78,0.63,0.84
1778268687.3807406,172931,-4.63,3.70,6.48,-2.05,0.56,0.83
1778268687.4364889,172953,-4.63,3.71,6.48,-2.56,0.57,0.71
1778268687.4382536,172975,-4.59,3.71,6.48,-2.75,0.60,0.71
1778268687.4393194,172997,-4.62,3.72,6.47,-3.02,0.59,0.82
1778268687.4980602,173019,-4.60,3.73,6.48,-2.32,0.67,0.80
1778268687.5003438,173041,-4.63,3.75,6.48,-2.24,0.78,0.80
1778268687.5014226,173063,-4.65,3.71,6.42,-1.89,0.60,1.03
1778268687.556824,173085,-4.55,3.69,6.50,-2.24,0.69,0.75
1778268687.5585413,173107,-4.61,3.70,6.49,-2.45,0.60,0.70
1778268687.6174543,173129,-4.63,3.74,6.44,-2.59,0.58,0.69
1778268687.6191504,173151,-4.58,3.67,6.50,-2.92,0.94,0.79
1778268687.6201072,173173,-4.65,3.70,6.46,-2.36,0.73,0.82
1778268687.6778543,173195,-4.60,3.70,6.47,-1.95,0.56,0.75
1778268687.73655,173217,-4.62,3.68,6.45,-2.13,0.73,0.97
1778268687.7383895,173239,-4.59,3.71,6.47,-2.46,0.73,0.66
1778268687.7397494,173261,-4.57,3.75,6.46,-2.70,0.76,0.83
1778268687.7408342,173283,-4.56,3.68,6.59,-2.76,0.67,0.64
1778268687.7420242,173305,-4.63,3.71,6.49,-2.73,0.62,0.82
1778268687.7962615,173327,-4.57,3.72,6.51,-2.19,0.63,0.98
1778268687.797787,173349,-4.61,3.70,6.48,-2.64,0.66,0.71
1778268687.8565383,173371,-4.56,3.69,6.48,-2.76,0.60,0.84
1778268687.857396,173393,-4.64,3.71,6.49,-2.52,0.81,0.75
1778268687.8583362,173415,-4.56,3.74,6.44,-2.04,0.76,0.91
1778268687.9164267,173437,-4.61,3.65,6.41,-1.53,0.79,0.87
1778268687.9174259,173459,-4.58,3.66,6.50,-1.81,0.70,0.84
1778268687.9181893,173481,-4.61,3.77,6.39,-2.37,0.55,0.59
1778268687.976437,173503,-4.60,3.72,6.52,-2.76,0.58,0.78
1778268687.9778926,173525,-4.56,3.69,6.49,-2.77,0.56,0.86
1778268688.0368333,173547,-4.61,3.67,6.44,-2.67,0.61,0.98
1778268688.038423,173569,-4.57,3.74,6.51,-2.10,0.75,0.81
1778268688.0394232,173591,-4.61,3.71,6.48,-2.04,0.68,0.86
1778268688.0998805,173613,-4.56,3.73,6.52,-2.05,0.68,0.86
1778268688.1011624,173635,-4.64,3.69,6.45,-1.99,0.55,0.99
1778268688.101891,173657,-4.53,3.73,6.48,-2.79,0.69,0.68
1778268688.1576738,173679,-4.67,3.70,6.50,-2.79,0.51,0.78
1778268688.160274,173701,-4.63,3.67,6.48,-2.52,0.53,0.97
1778268688.1614246,173723,-4.58,3.73,6.44,-2.15,0.55,0.95
1778268688.2173693,173745,-4.56,3.75,6.43,-1.79,0.52,0.93
1778268688.2193146,173767,-4.60,3.71,6.43,-1.85,0.64,0.71
1778268688.2766945,173789,-4.60,3.70,6.49,-2.26,0.55,0.72
1778268688.2781537,173811,-4.56,3.70,6.47,-2.86,0.79,0.58
1778268688.279139,173833,-4.64,3.70,6.48,-2.47,0.76,0.89
1778268688.336389,173855,-4.54,3.74,6.47,-2.26,0.74,0.92
1778268688.3380327,173877,-4.64,3.71,6.44,-1.63,0.70,0.92
1778268688.3390326,173899,-4.64,3.69,6.62,-2.35,0.65,0.92
1778268688.3977833,173921,-4.62,3.71,6.54,-2.60,0.66,0.92
1778268688.3995965,173943,-4.54,3.74,6.50,-2.81,0.44,0.83
1778268688.4004047,173965,-4.54,3.67,6.40,-2.63,0.54,0.81
1778268688.457038,173987,-4.62,3.69,6.49,-2.56,0.56,0.78
1778268688.516952,174009,-4.53,3.70,6.46,-1.67,0.63,0.87
1778268688.520124,174031,-4.58,3.71,6.46,-2.28,0.70,0.73
1778268688.5213292,174053,-4.51,3.72,6.44,-2.53,0.73,0.78
1778268688.5221984,174075,-4.59,3.70,6.45,-2.85,0.51,0.87
1778268688.5783067,174097,-4.62,3.68,6.48,-2.26,0.56,1.02
1778268688.5812094,174119,-4.60,3.73,6.44,-2.13,0.52,1.15
1778268688.582254,174141,-4.57,3.73,6.51,-2.03,0.50,1.01
1778268688.6364946,174163,-4.56,3.76,6.51,-1.62,0.67,1.08
1778268688.6380615,174185,-4.55,3.69,6.45,-1.85,0.59,0.85
1778268688.6970506,174207,-4.62,3.71,6.53,-2.13,0.73,0.79
1778268688.6987746,174229,-4.63,3.72,6.49,-2.54,0.75,0.68
1778268688.699967,174251,-4.64,3.73,6.47,-2.58,0.72,0.75
1778268688.7568476,174273,-4.61,3.71,6.50,-2.69,0.82,0.65
1778268688.7585385,174295,-4.62,3.73,6.57,-2.78,0.69,0.85
1778268688.7596014,174317,-4.57,3.72,6.51,-2.78,0.86,0.91
1778268688.817474,174339,-4.60,3.76,6.45,-2.41,0.74,0.97
1778268688.8189507,174361,-4.65,3.71,6.53,-2.21,0.72,0.87
1778268688.8200235,174383,-4.58,3.71,6.40,-1.73,0.72,0.90
1778268688.8766305,174405,-4.61,3.71,6.50,-1.82,0.69,0.83
1778268688.8783195,174427,-4.61,3.73,6.48,-2.03,0.69,0.84
1778268688.9377098,174449,-4.63,3.67,6.51,-2.53,0.77,0.77
1778268688.9400115,174471,-4.60,3.72,6.49,-2.81,0.71,0.85
1778268688.9411137,174493,-4.62,3.72,6.48,-2.27,0.60,0.78
1778268688.997001,174515,-4.56,3.71,6.49,-2.60,0.69,0.84
1778268688.998808,174537,-4.60,3.73,6.52,-2.23,0.65,0.85
1778268688.9998674,174559,-4.59,3.72,6.50,-2.11,0.50,0.85
1778268689.0562277,174581,-4.58,3.73,6.41,-2.34,0.52,0.91
1778268689.0580096,174603,-4.53,3.69,6.59,-2.69,0.63,0.79
1778268689.0590627,174625,-4.55,3.69,6.44,-2.73,0.73,0.56
1778268689.116572,174647,-4.66,3.68,6.53,-2.47,0.90,0.95
1778268689.118313,174669,-4.60,3.79,6.45,-1.63,0.88,1.00
1778268689.1768034,174691,-4.59,3.72,6.49,-2.38,0.85,0.67
1778268689.1785018,174713,-4.64,3.70,6.47,-2.74,0.92,0.74
1778268689.1801918,174735,-4.64,3.77,6.51,-2.84,0.76,0.67
1778268689.2366433,174757,-4.65,3.70,6.46,-2.44,0.63,0.98
1778268689.238131,174779,-4.56,3.72,6.49,-2.25,0.54,0.87
1778268689.2389786,174801,-4.57,3.73,6.54,-2.08,0.42,1.01
1778268689.2980235,174823,-4.58,3.71,6.46,-2.48,0.58,0.63
1778268689.2999685,174845,-4.57,3.69,6.47,-3.02,0.65,0.71
1778268689.3566902,174867,-4.61,3.74,6.49,-3.19,0.55,0.58
1778268689.358197,174889,-4.57,3.67,6.47,-3.21,0.63,0.66
1778268689.3593116,174911,-4.55,3.68,6.46,-2.35,0.73,0.69
1778268689.4165845,174933,-4.57,3.68,6.49,-2.05,0.66,0.89
1778268689.4181583,174955,-4.61,3.69,6.52,-1.82,0.70,0.96
1778268689.4193878,174977,-4.62,3.68,6.45,-2.73,0.58,0.80
1778268689.4762132,174999,-4.56,3.74,6.48,-2.73,0.78,0.95
1778268689.477963,175021,-4.59,3.79,6.50,-2.73,0.78,0.84
1778268689.4789433,175043,-4.60,3.69,6.56,-1.90,0.64,1.05
1778268689.5365717,175065,-4.55,3.75,6.43,-1.88,0.56,0.92
1778268689.5383437,175087,-4.56,3.75,6.51,-1.95,0.76,0.95
1778268689.5982533,175109,-4.65,3.75,6.48,-2.18,0.73,0.79
1778268689.5999956,175131,-4.59,3.67,6.47,-1.93,0.60,0.76
1778268689.601078,175153,-4.61,3.68,6.53,-2.11,0.66,0.78
1778268689.6562998,175175,-4.66,3.71,6.46,-2.85,0.55,0.66
1778268689.657935,175197,-4.59,3.69,6.47,-2.48,0.69,0.98
1778268689.6588485,175219,-4.57,3.67,6.52,-1.92,0.51,1.06
1778268689.7170334,175241,-4.60,3.77,6.44,-2.19,0.56,0.92
1778268689.7191727,175263,-4.55,3.71,6.43,-2.57,0.76,0.94
1778268689.7207289,175285,-4.56,3.75,6.50,-2.73,0.74,0.74
1778268689.7829275,175307,-4.57,3.72,6.45,-2.59,0.92,0.82
1778268689.7845447,175329,-4.59,3.70,6.43,-2.07,0.68,0.89
1778268689.8364801,175351,-4.56,3.71,6.54,-1.90,0.72,0.96
1778268689.8980398,175373,-4.62,3.73,6.46,-1.66,0.89,0.96
1778268689.8997986,175395,-4.64,3.72,6.51,-2.13,0.75,0.67
1778268689.901013,175417,-4.62,3.72,6.45,-2.62,0.68,0.84
1778268689.901802,175439,-4.62,3.68,6.52,-2.60,0.63,0.86
1778268689.9024808,175461,-4.56,3.76,6.48,-2.41,0.69,0.86
1778268689.9592662,175483,-4.58,3.72,6.48,-2.20,0.63,0.89
1778268689.9605446,175505,-4.58,3.75,6.51,-2.31,0.48,0.78
1778268690.0180187,175527,-4.58,3.72,6.51,-2.71,0.62,0.69
1778268690.0198302,175549,-4.55,3.74,6.49,-2.71,0.61,0.79
1778268690.0214329,175571,-4.62,3.66,6.49,-2.03,0.69,0.89
1778268690.0760686,175593,-4.60,3.72,6.48,-1.82,0.82,1.04
1778268690.0769887,175615,-4.54,3.72,6.49,-1.84,0.61,0.95
1778268690.0780344,175637,-4.60,3.68,6.47,-2.14,0.73,0.83
1778268690.135562,175659,-4.57,3.67,6.49,-2.25,0.74,0.77
1778268690.1365225,175681,-4.57,3.70,6.50,-2.78,0.63,0.85
1778268690.137261,175703,-4.58,3.69,6.50,-2.85,0.72,0.79
1778268690.2563226,175725,-4.60,3.76,6.53,-2.32,0.59,0.88
1778268690.3169582,175747,-4.61,3.71,6.45,-1.91,0.79,0.99
1778268690.3186762,175769,-4.60,3.69,6.48,-1.79,0.56,0.97
1778268690.3197906,175791,-4.55,3.72,6.46,-1.86,0.66,0.87
1778268690.3210275,175813,-4.63,3.68,6.43,-2.14,0.61,0.75
1778268690.3218482,175835,-4.56,3.67,6.44,-2.26,0.60,0.91
1778268690.3229508,175857,-4.63,3.64,6.49,-2.46,0.59,0.81
1778268690.3238165,175879,-4.60,3.68,6.53,-2.91,0.80,0.73
1778268690.3768144,175901,-4.60,3.69,6.42,-2.61,0.76,0.90
1778268690.3781686,175923,-4.61,3.72,6.43,-2.54,0.79,0.88
1778268690.37913,175945,-4.63,3.70,6.42,-2.57,0.73,0.73
1778268690.4361467,175967,-4.55,3.69,6.48,-1.98,0.57,1.00
1778268690.4381096,175989,-4.63,3.72,6.48,-2.11,0.77,0.85
1778268690.4968333,176011,-4.60,3.72,6.49,-1.92,0.61,0.98
1778268690.4987166,176033,-4.57,3.66,6.51,-2.50,0.52,0.83
1778268690.4998746,176055,-4.63,3.77,6.55,-2.91,0.60,0.85
1778268690.5566318,176077,-4.62,3.74,6.50,-2.73,0.81,0.85
1778268690.5580077,176099,-4.62,3.69,6.42,-1.95,0.71,0.81
1778268690.5591896,176121,-4.63,3.71,6.45,-1.97,0.71,0.91
1778268690.6206317,176143,-4.58,3.62,6.44,-1.73,0.76,0.92
1778268690.6770737,176165,-4.60,3.71,6.57,-2.56,0.76,0.72
1778268690.6788533,176187,-4.64,3.72,6.42,-2.47,0.67,0.82
1778268690.6808634,176209,-4.54,3.76,6.52,-1.69,0.65,0.99
1778268690.6856155,176231,-4.57,3.75,6.58,-2.31,0.66,0.93
1778268690.7376738,176253,-4.60,3.73,6.43,-2.86,0.81,0.68
1778268690.7390788,176275,-4.58,3.68,6.50,-2.92,0.73,0.56
1778268690.7399132,176297,-4.60,3.71,6.45,-2.88,0.73,0.63
1778268690.7961729,176319,-4.57,3.74,6.46,-2.68,0.63,0.87
1778268690.798547,176341,-4.58,3.71,6.46,-1.90,0.43,0.92
1778268690.799596,176363,-4.63,3.70,6.44,-2.59,0.54,0.97
1778268690.8567464,176385,-4.57,3.74,6.47,-2.48,0.66,0.72
1778268690.8583415,176407,-4.59,3.71,6.45,-2.72,0.81,0.74
1778268690.918364,176429,-4.61,3.69,6.44,-2.93,0.74,0.69
1778268690.9200115,176451,-4.62,3.70,6.50,-2.18,0.60,0.77
1778268690.9211252,176473,-4.61,3.70,6.46,-2.06,0.71,0.77
1778268690.977967,176495,-4.58,3.74,6.50,-2.69,0.85,0.66
1778268690.9798393,176517,-4.59,3.71,6.46,-2.81,0.68,0.73
1778268690.9810987,176539,-4.63,3.73,6.45,-2.60,0.59,0.80
1778268691.035852,176561,-4.50,3.74,6.45,-2.27,0.79,0.98
1778268691.0371,176583,-4.59,3.70,6.52,-1.89,0.68,0.86
1778268691.0953715,176605,-4.63,3.68,6.50,-2.64,0.60,0.69
1778268691.0969722,176627,-4.62,3.67,6.43,-2.64,0.50,0.78
1778268691.0981784,176649,-4.64,3.74,6.45,-2.76,0.79,0.77
1778268691.1554532,176671,-4.64,3.72,6.46,-2.60,0.83,0.95
1778268691.156604,176693,-4.60,3.72,6.46,-1.89,0.71,0.83
1778268691.157595,176715,-4.64,3.70,6.44,-2.45,0.48,0.69
1778268691.2174592,176737,-4.55,3.70,6.52,-2.76,0.82,0.79
1778268691.2190506,176759,-4.64,3.70,6.48,-2.25,0.62,0.90
1778268691.2201345,176781,-4.61,3.72,6.48,-2.12,0.68,0.89
1778268691.2767372,176803,-4.61,3.72,6.49,-1.78,0.69,0.84
1778268691.2782533,176825,-4.60,3.72,6.48,-2.09,0.81,0.95
1778268691.3355274,176847,-4.55,3.71,6.44,-2.53,0.74,0.72
1778268691.3366363,176869,-4.60,3.73,6.47,-2.72,0.69,0.78
1778268691.3375173,176891,-4.59,3.74,6.53,-2.91,0.76,0.69
1778268691.3958867,176913,-4.63,3.68,6.55,-2.76,0.89,0.78
1778268691.3980772,176935,-4.61,3.79,6.47,-2.87,0.71,0.69
1778268691.399729,176957,-4.55,3.72,6.48,-2.49,0.70,0.73
1778268691.456375,176979,-4.57,3.73,6.56,-1.93,0.53,0.93
1778268691.4580812,177001,-4.59,3.75,6.49,-2.82,0.66,0.47
1778268691.4594393,177023,-4.62,3.68,6.50,-2.80,0.69,0.83
1778268691.5170283,177045,-4.55,3.72,6.47,-2.54,0.56,0.84
1778268691.5187178,177067,-4.58,3.70,6.51,-2.22,0.62,1.02
1778268691.5764554,177089,-4.60,3.72,6.51,-2.04,0.70,0.76
1778268691.5780199,177111,-4.56,3.79,6.47,-2.69,0.79,0.80
1778268691.578988,177133,-4.57,3.71,6.55,-2.85,0.75,0.67
1778268691.6367912,177155,-4.61,3.68,6.50,-2.66,0.78,0.83
1778268691.6381178,177177,-4.55,3.76,6.42,-2.28,0.71,0.73
1778268691.6389422,177199,-4.66,3.75,6.47,-2.07,0.56,0.83
1778268691.696191,177221,-4.56,3.67,6.53,-1.90,0.66,0.99
1778268691.698552,177243,-4.59,3.73,6.51,-2.65,0.76,0.73
1778268691.6995904,177265,-4.60,3.72,6.49,-2.89,0.77,0.79
1778268691.7573066,177287,-4.60,3.74,6.56,-2.83,0.77,0.81
1778268691.758943,177309,-4.57,3.74,6.45,-2.42,0.76,0.92
1778268691.8180096,177331,-4.56,3.67,6.55,-1.76,0.66,0.82
1778268691.8193567,177353,-4.56,3.74,6.40,-2.55,0.73,0.64
1778268691.8202896,177375,-4.62,3.65,6.45,-2.39,0.56,0.96
1778268691.8760524,177397,-4.59,3.77,6.50,-2.50,0.71,0.72
1778268691.8770418,177419,-4.56,3.65,6.44,-2.17,0.62,0.82
1778268691.8776507,177441,-4.55,3.70,6.50,-1.79,0.65,0.89
1778268691.9393485,177463,-4.66,3.76,6.50,-1.78,0.66,0.80
1778268691.9410317,177485,-4.61,3.67,6.54,-2.11,0.60,0.73
1778268691.9958932,177507,-4.58,3.67,6.51,-2.68,0.69,0.63
1778268691.997939,177529,-4.61,3.67,6.50,-2.50,0.79,0.94
1778268691.9995282,177551,-4.60,3.67,6.55,-2.42,0.68,1.10
1778268692.0561948,177573,-4.67,3.71,6.45,-1.92,0.68,0.86
1778268692.0573733,177595,-4.62,3.68,6.47,-1.87,0.66,0.82
1778268692.0581925,177617,-4.63,3.73,6.44,-2.12,0.79,0.89
1778268692.1168637,177639,-4.57,3.69,6.37,-2.82,0.58,0.81
1778268692.118523,177661,-4.63,3.70,6.54,-2.86,0.76,0.82
1778268692.1196065,177683,-4.57,3.70,6.50,-1.88,0.43,0.98
1778268692.1790805,177705,-4.56,3.71,6.41,-2.24,0.50,0.93
1778268692.1805804,177727,-4.63,3.71,6.50,-2.50,0.46,0.59
1778268692.2374482,177749,-4.56,3.71,6.52,-2.80,0.52,0.79
1778268692.2386196,177771,-4.55,3.68,6.53,-2.85,0.74,0.77
1778268692.2394888,177793,-4.58,3.59,6.49,-2.73,0.66,0.82
1778268692.2962828,177815,-4.60,3.72,6.42,-2.24,0.76,0.89
1778268692.2978113,177837,-4.58,3.77,6.49,-1.54,0.70,0.86
1778268692.2984686,177859,-4.58,3.72,6.48,-2.05,0.66,0.92
1778268692.3558266,177881,-4.64,3.77,6.44,-2.03,0.72,0.81
1778268692.3570557,177903,-4.61,3.68,6.41,-2.38,0.73,0.77
1778268692.3581374,177925,-4.58,3.77,6.51,-2.65,0.66,0.67
1778268692.4161408,177947,-4.58,3.75,6.47,-2.66,0.76,0.89
1778268692.4177227,177969,-4.60,3.68,6.45,-2.42,0.68,1.08
1778268692.4764555,177991,-4.56,3.69,6.53,-2.28,0.51,0.92
1778268692.477845,178013,-4.61,3.72,6.38,-2.10,0.50,0.95
1778268692.479062,178035,-4.61,3.72,6.40,-1.92,0.48,0.79
1778268692.5368176,178057,-4.58,3.71,6.40,-1.73,0.60,0.95
1778268692.5384958,178079,-4.60,3.74,6.54,-1.83,0.66,0.92
1778268692.539726,178101,-4.62,3.74,6.44,-2.09,0.84,0.80
1778268692.5989897,178123,-4.53,3.65,6.44,-2.35,0.73,0.76
1778268692.6001573,178145,-4.61,3.71,6.47,-2.36,0.76,0.90
1778268692.6560829,178167,-4.58,3.70,6.51,-2.81,0.76,0.69
1778268692.6576686,178189,-4.59,3.74,6.52,-2.84,0.82,0.73
1778268692.6587071,178211,-4.56,3.71,6.50,-2.05,0.73,0.76
1778268692.7169785,178233,-4.66,3.68,6.51,-2.18,0.64,0.92
1778268692.7192736,178255,-4.62,3.73,6.41,-1.83,0.47,0.91
1778268692.720105,178277,-4.59,3.75,6.52,-1.87,0.39,0.98
1778268692.776298,178299,-4.59,3.67,6.44,-2.86,0.65,0.97
1778268692.7780375,178321,-4.62,3.70,6.45,-2.79,0.65,0.79
1778268692.7806811,178343,-4.62,3.67,6.44,-2.82,0.59,0.73
1778268692.8370235,178365,-4.63,3.73,6.41,-2.27,0.88,0.97
1778268692.8382041,178387,-4.67,3.70,6.50,-2.00,0.59,0.91
1778268692.8966525,178409,-4.65,3.69,6.56,-1.92,0.94,1.00
1778268692.8983178,178431,-4.62,3.68,6.54,-1.99,0.69,0.83
1778268692.899473,178453,-4.60,3.71,6.50,-2.27,0.63,0.95
1778268692.9562776,178475,-4.60,3.70,6.47,-2.95,0.72,0.70
1778268693.0197659,178497,-4.52,3.69,6.39,-2.81,0.63,0.76
1778268693.0219023,178519,-4.58,3.71,6.42,-2.34,0.61,0.92
1778268693.0230002,178541,-4.63,3.71,6.44,-2.31,0.89,0.98
1778268693.024864,178563,-4.58,3.70,6.52,-2.08,0.81,0.89
1778268693.026451,178585,-4.56,3.66,6.56,-2.29,0.78,0.77
1778268693.0767012,178607,-4.60,3.72,6.52,-2.76,0.80,0.63
1778268693.0781345,178629,-4.62,3.79,6.44,-2.76,0.73,0.69
1778268693.1375709,178651,-4.60,3.71,6.54,-2.89,0.77,0.76
1778268693.1964138,178673,-4.58,3.67,6.54,-2.55,0.67,0.72
1778268693.1978076,178695,-4.56,3.71,6.40,-1.80,0.79,1.00
1778268693.1990497,178717,-4.59,3.64,6.56,-1.80,0.66,0.92
1778268693.2002587,178739,-4.63,3.72,6.44,-2.38,0.69,0.79
1778268693.2014759,178761,-4.59,3.73,6.50,-2.98,0.73,0.63
1778268693.2565713,178783,-4.61,3.69,6.46,-2.63,0.59,0.81
1778268693.258304,178805,-4.54,3.74,6.51,-2.36,0.85,0.83
1778268693.3162775,178827,-4.63,3.67,6.49,-2.45,0.85,0.79
1778268693.3177588,178849,-4.62,3.74,6.51,-2.24,0.67,1.00
1778268693.318799,178871,-4.62,3.74,6.52,-1.79,0.55,0.87
1778268693.3765306,178893,-4.57,3.75,6.55,-1.99,0.65,0.79
1778268693.3784392,178915,-4.65,3.70,6.57,-2.05,0.86,0.73
1778268693.379877,178937,-4.61,3.69,6.36,-2.24,0.75,0.58
1778268693.4369147,178959,-4.57,3.76,6.49,-2.66,0.44,0.92
1778268693.43867,178981,-4.57,3.73,6.50,-2.78,0.65,0.77
1778268693.4398983,179003,-4.62,3.72,6.48,-2.77,0.64,0.83
1778268693.4975145,179025,-4.60,3.65,6.41,-3.00,0.70,0.83
1778268693.499197,179047,-4.62,3.71,6.45,-2.28,0.53,0.89
1778268693.5560734,179069,-4.55,3.71,6.47,-2.32,0.69,0.89
1778268693.6160073,179091,-4.62,3.71,6.47,-2.10,0.85,0.88
1778268693.617541,179113,-4.56,3.74,6.47,-2.06,0.60,0.79
1778268693.6186235,179135,-4.56,3.74,6.51,-1.89,0.63,0.88
1778268693.6193476,179157,-4.60,3.73,6.46,-1.69,0.56,0.86
1778268693.6199768,179179,-4.57,3.70,6.52,-2.55,0.71,0.75
1778268693.6766083,179201,-4.52,3.73,6.48,-2.87,0.75,0.92
1778268693.6779194,179223,-4.59,3.72,6.52,-2.68,0.63,0.84
1778268693.678763,179245,-4.60,3.69,6.46,-2.49,0.68,0.86
1778268693.7361846,179267,-4.58,3.73,6.45,-2.25,0.60,0.89
1778268693.737575,179289,-4.60,3.71,6.48,-2.04,0.76,0.86
1778268693.7981043,179311,-4.59,3.73,6.50,-1.85,0.61,0.86
1778268693.8009548,179333,-4.62,3.66,6.44,-2.04,0.69,0.81
1778268693.8025503,179355,-4.58,3.65,6.44,-2.40,0.57,0.79
1778268693.8558085,179377,-4.56,3.70,6.49,-2.66,0.56,0.69
1778268693.8574321,179399,-4.63,3.69,6.55,-2.76,0.74,0.78
1778268693.8585167,179421,-4.54,3.72,6.51,-2.26,0.69,1.00
1778268693.915555,179443,-4.59,3.72,6.51,-1.77,0.63,0.89
1778268693.9172096,179465,-4.57,3.70,6.45,-2.01,0.71,0.82
1778268693.9762394,179487,-4.64,3.74,6.54,-2.13,0.60,0.79
1778268693.9780717,179509,-4.66,3.73,6.47,-2.92,0.60,0.86
1778268693.9790425,179531,-4.60,3.73,6.47,-2.60,0.89,0.80
1778268694.036233,179553,-4.57,3.76,6.51,-2.49,0.71,0.89
1778268694.0377665,179575,-4.59,3.76,6.52,-1.76,0.76,0.90
1778268694.0387473,179597,-4.60,3.73,6.43,-2.29,0.65,0.61
1778268694.0968513,179619,-4.64,3.70,6.44,-2.42,0.73,0.69
1778268694.0982885,179641,-4.60,3.78,6.44,-2.69,0.69,0.69
1778268694.099119,179663,-4.67,3.74,6.49,-2.35,0.75,0.96
1778268694.1565526,179685,-4.56,3.72,6.50,-2.25,0.66,0.85
1778268694.1584392,179707,-4.58,3.68,6.54,-1.88,0.67,0.79
1778268694.2193637,179729,-4.55,3.71,6.52,-2.91,0.63,0.76
1778268694.2214587,179751,-4.61,3.72,6.42,-2.83,0.53,0.74
1778268694.222929,179773,-4.55,3.73,6.48,-2.50,0.77,0.80
1778268694.2764044,179795,-4.58,3.72,6.47,-1.65,0.87,1.02
1778268694.2775686,179817,-4.59,3.69,6.56,-2.38,0.75,0.76
1778268694.2786086,179839,-4.57,3.72,6.52,-2.79,0.69,0.60
1778268694.336281,179861,-4.57,3.70,6.51,-2.82,0.83,0.76
1778268694.3379622,179883,-4.59,3.70,6.53,-2.08,0.64,0.89
1778268694.339606,179905,-4.66,3.66,6.44,-1.94,0.69,0.79
1778268694.396047,179927,-4.63,3.72,6.46,-2.27,0.63,0.87
1778268694.3975515,179949,-4.63,3.72,6.46,-2.56,0.66,0.91
1778268694.4565208,179971,-4.62,3.74,6.48,-2.79,0.65,0.82
1778268694.457721,179993,-4.58,3.73,6.52,-2.63,0.88,0.69
1778268694.4583573,180015,-4.57,3.76,6.49,-2.85,0.86,0.80
1778268694.5160315,180037,-4.56,3.73,6.49,-2.69,0.82,0.83
1778268694.5173972,180059,-4.54,3.65,6.59,-2.80,0.82,0.78
1778268694.5186737,180081,-4.61,3.68,6.49,-1.84,0.69,1.11
1778268694.575672,180103,-4.56,3.71,6.48,-1.98,0.60,0.93
1778268694.5765917,180125,-4.62,3.74,6.48,-2.52,0.72,0.68
1778268694.636172,180147,-4.60,3.66,6.55,-2.66,0.78,0.81
1778268694.6373866,180169,-4.56,3.73,6.45,-2.56,0.72,0.91
1778268694.6382816,180191,-4.64,3.70,6.56,-2.41,0.59,0.84
1778268694.6962664,180213,-4.61,3.73,6.43,-2.27,0.69,0.77
1778268694.6979568,180235,-4.60,3.75,6.52,-2.18,0.73,0.79
1778268694.6991005,180257,-4.59,3.76,6.44,-2.30,0.58,0.79
1778268694.756703,180279,-4.61,3.69,6.49,-2.31,0.58,0.70
1778268694.7583508,180301,-4.57,3.71,6.45,-2.72,0.76,0.86
1778268694.7596745,180323,-4.58,3.71,6.47,-2.78,0.67,0.66
1778268694.81659,180345,-4.57,3.71,6.43,-2.66,0.78,0.77
1778268694.818486,180367,-4.59,3.68,6.51,-2.20,0.82,1.04
1778268694.8763552,180389,-4.59,3.70,6.48,-2.00,0.59,1.01
1778268694.8779566,180411,-4.54,3.68,6.49,-2.05,0.56,0.95
1778268694.8791604,180433,-4.63,3.68,6.44,-1.66,0.71,1.09
1778268694.9362726,180455,-4.59,3.71,6.50,-1.66,0.50,1.04
1778268694.937649,180477,-4.66,3.68,6.41,-1.86,0.60,0.88
1778268694.9385252,180499,-4.59,3.67,6.50,-2.28,0.78,0.93
1778268694.9975338,180521,-4.59,3.69,6.43,-2.47,0.77,0.70
1778268694.999632,180543,-4.57,3.72,6.48,-2.80,0.69,0.68
1778268695.0005352,180565,-4.61,3.71,6.53,-2.71,0.77,0.82
1778268695.0563908,180587,-4.59,3.71,6.40,-2.63,0.76,0.86
1778268695.057858,180609,-4.62,3.68,6.56,-1.82,0.54,0.91
1778268695.118433,180631,-4.64,3.72,6.47,-2.84,0.82,0.74
1778268695.1198153,180653,-4.59,3.68,6.52,-2.90,0.83,0.96
1778268695.1210349,180675,-4.55,3.67,6.45,-2.70,0.75,0.94
1778268695.1774478,180697,-4.58,3.77,6.52,-2.31,0.63,0.90
1778268695.1788347,180719,-4.61,3.67,6.44,-1.94,0.69,0.98
1778268695.1800528,180741,-4.59,3.74,6.50,-2.01,0.56,0.85
1778268695.2365053,180763,-4.62,3.73,6.52,-2.47,0.72,0.68
1778268695.2380085,180785,-4.65,3.71,6.42,-2.91,0.66,0.66
1778268695.2981186,180807,-4.58,3.67,6.53,-3.06,0.76,0.67
1778268695.2995799,180829,-4.67,3.70,6.52,-2.80,0.49,1.00
1778268695.3003693,180851,-4.61,3.76,6.45,-2.53,0.68,0.84
1778268695.3570461,180873,-4.60,3.68,6.53,-2.03,0.51,0.87
1778268695.3581493,180895,-4.56,3.79,6.54,-1.98,0.65,0.82
1778268695.3589911,180917,-4.61,3.71,6.44,-1.79,0.65,0.88
1778268695.416265,180939,-4.57,3.75,6.53,-2.05,0.61,0.92
1778268695.4178877,180961,-4.61,3.69,6.51,-2.51,0.65,0.76
1778268695.4186654,180983,-4.62,3.69,6.49,-2.68,0.75,0.76
1778268695.4759426,181005,-4.62,3.68,6.53,-2.91,0.60,0.76
1778268695.4773853,181027,-4.65,3.70,6.47,-2.84,0.64,0.79
1778268695.536215,181049,-4.60,3.71,6.53,-2.61,0.59,0.73
1778268695.537842,181071,-4.54,3.72,6.50,-2.34,0.69,0.76
1778268695.539407,181093,-4.69,3.72,6.46,-1.95,0.63,0.85
1778268695.5967855,181115,-4.61,3.67,6.45,-2.11,0.63,0.76
1778268695.5986388,181137,-4.66,3.71,6.43,-2.29,0.62,0.79
1778268695.5993502,181159,-4.58,3.70,6.52,-2.80,0.69,0.92
1778268695.656177,181181,-4.64,3.68,6.49,-2.86,0.74,0.59
1778268695.6577308,181203,-4.60,3.65,6.46,-2.34,0.85,0.85
1778268695.6587658,181225,-4.55,3.72,6.51,-1.71,0.36,0.92
1778268695.7162108,181247,-4.62,3.68,6.49,-2.46,0.72,0.76
1778268695.7175941,181269,-4.64,3.72,6.50,-2.53,0.69,0.77
1778268695.7757537,181291,-4.64,3.77,6.43,-2.88,0.70,0.60
1778268695.7771995,181313,-4.62,3.71,6.40,-2.80,0.65,0.71
1778268695.778417,181335,-4.62,3.71,6.50,-2.95,0.53,0.67
1778268695.8361154,181357,-4.56,3.73,6.45,-2.96,0.85,0.79
1778268695.8373995,181379,-4.53,3.71,6.48,-1.99,0.77,0.98
1778268695.838527,181401,-4.64,3.65,6.53,-2.13,0.76,0.85
1778268695.8963988,181423,-4.58,3.71,6.53,-2.73,0.63,0.82
1778268695.8980849,181445,-4.59,3.71,6.53,-2.34,0.76,0.85
1778268695.9562886,181467,-4.67,3.66,6.49,-1.95,0.69,0.95
1778268695.9578085,181489,-4.62,3.69,6.49,-1.69,0.60,0.91
1778268695.959011,181511,-4.56,3.67,6.48,-2.17,0.72,0.67
1778268696.0166783,181533,-4.59,3.69,6.48,-2.67,0.58,0.62
1778268696.018008,181555,-4.56,3.69,6.49,-2.89,0.76,0.60
1778268696.019289,181577,-4.61,3.64,6.51,-2.75,0.63,0.76
1778268696.076571,181599,-4.55,3.69,6.50,-2.88,0.88,0.64
1778268696.0780344,181621,-4.59,3.67,6.48,-2.09,0.82,0.94
1778268696.079307,181643,-4.57,3.71,6.50,-1.91,0.83,0.92
1778268696.1362422,181665,-4.63,3.63,6.51,-1.77,0.69,0.97
1778268696.1375122,181687,-4.61,3.71,6.52,-1.72,0.76,0.82
1778268696.1967413,181709,-4.67,3.70,6.43,-2.00,0.75,0.68
1778268696.1979332,181731,-4.61,3.69,6.50,-2.60,0.82,0.82
1778268696.1987529,181753,-4.60,3.70,6.48,-2.73,0.81,0.92
1778268696.2647226,181775,-4.51,3.73,6.37,-2.48,0.55,0.76
1778268696.2660413,181797,-4.62,3.72,6.45,-1.98,0.58,0.92
1778268696.266876,181819,-4.57,3.71,6.52,-3.03,0.60,0.75
1778268696.316256,181841,-4.61,3.69,6.50,-2.97,0.61,0.84
1778268696.317818,181863,-4.61,3.70,6.49,-2.79,0.61,0.76
1778268696.3186984,181885,-4.56,3.68,6.45,-2.57,0.61,0.84
1778268696.376463,181907,-4.56,3.70,6.48,-1.62,0.42,1.02
1778268696.377762,181929,-4.57,3.73,6.47,-1.91,0.72,0.75
1778268696.4372823,181951,-4.60,3.72,6.43,-1.88,0.57,0.82
1778268696.4388123,181973,-4.60,3.67,6.48,-2.24,0.70,0.92
1778268696.4402335,181995,-4.56,3.73,6.47,-2.20,0.73,0.79
1778268696.4962153,182017,-4.57,3.75,6.45,-1.83,0.79,0.91
1778268696.5562787,182039,-4.60,3.73,6.56,-1.86,0.69,0.81
1778268696.559246,182061,-4.58,3.74,6.49,-2.37,0.84,0.76
1778268696.560288,182083,-4.57,3.75,6.46,-2.70,0.74,0.63
1778268696.5612144,182105,-4.59,3.70,6.49,-2.79,0.70,0.74
1778268696.5621114,182127,-4.60,3.70,6.50,-2.87,0.68,0.79
1778268696.615751,182149,-4.57,3.70,6.55,-2.71,0.87,0.63
1778268696.6169565,182171,-4.64,3.70,6.52,-2.85,0.76,0.93
1778268696.677519,182193,-4.56,3.71,6.47,-2.83,0.74,0.88
1778268696.67903,182215,-4.55,3.69,6.44,-1.85,0.79,0.88
1778268696.6803474,182237,-4.56,3.70,6.47,-2.19,0.51,0.86
1778268696.735474,182259,-4.56,3.71,6.56,-2.62,0.73,0.80
1778268696.7365196,182281,-4.61,3.67,6.50,-2.97,0.70,0.70
1778268696.7372851,182303,-4.57,3.74,6.50,-2.55,0.86,0.75
1778268696.7958202,182325,-4.54,3.70,6.47,-2.21,0.85,0.95
1778268696.7975159,182347,-4.57,3.72,6.47,-1.76,0.82,0.95
1778268696.8565261,182369,-4.54,3.68,6.49,-2.11,0.66,0.73
1778268696.8590646,182391,-4.59,3.68,6.46,-2.28,0.63,0.82
1778268696.860607,182413,-4.59,3.71,6.46,-2.63,0.83,0.60
1778268696.9154506,182435,-4.58,3.71,6.50,-2.68,0.69,0.56
1778268696.9168487,182457,-4.57,3.76,6.48,-2.77,0.75,0.76
1778268696.9180436,182479,-4.63,3.68,6.48,-2.88,0.57,0.83
1778268696.9760354,182501,-4.60,3.69,6.59,-2.57,0.73,1.04
1778268696.9771605,182523,-4.61,3.75,6.51,-1.80,0.72,0.98
1778268696.9779487,182545,-4.63,3.73,6.54,-2.27,0.68,0.73
1778268697.0360162,182567,-4.59,3.68,6.48,-2.18,0.66,0.76
1778268697.0376635,182589,-4.56,3.71,6.46,-2.47,0.64,0.75
1778268697.0962386,182611,-4.63,3.76,6.50,-2.79,0.77,0.89
1778268697.0979958,182633,-4.55,3.71,6.49,-2.75,0.48,0.87
1778268697.099019,182655,-4.61,3.72,6.46,-2.87,0.58,0.89
1778268697.1562874,182677,-4.58,3.67,6.45,-2.45,0.63,0.73
1778268697.1576679,182699,-4.64,3.65,6.45,-2.14,0.67,1.00
1778268697.1586356,182721,-4.55,3.76,6.47,-1.85,0.66,0.97
1778268697.2162917,182743,-4.63,3.73,6.46,-1.86,0.73,0.99
1778268697.2178795,182765,-4.62,3.67,6.50,-1.92,0.83,0.93
1778268697.2757711,182787,-4.53,3.66,6.47,-2.53,0.76,0.85
1778268697.276671,182809,-4.58,3.75,6.51,-2.85,0.69,0.82
1778268697.277387,182831,-4.59,3.69,6.50,-2.72,0.68,0.87
1778268697.3366132,182853,-4.59,3.67,6.48,-2.10,0.53,0.95
1778268697.3381915,182875,-4.60,3.69,6.41,-1.93,0.50,1.02
1778268697.3391867,182897,-4.60,3.67,6.50,-2.44,0.69,0.66
1778268697.3963797,182919,-4.58,3.66,6.43,-2.86,0.74,0.83
1778268697.3983564,182941,-4.61,3.67,6.45,-2.78,0.53,0.85
1778268697.3991878,182963,-4.59,3.75,6.48,-2.03,0.66,0.96
1778268697.456351,182985,-4.59,3.68,6.53,-1.85,0.61,0.79
1778268697.4581656,183007,-4.59,3.70,6.48,-2.53,0.67,0.60
1778268697.5164504,183029,-4.61,3.69,6.45,-2.64,0.65,0.55
1778268697.5176682,183051,-4.56,3.68,6.50,-2.42,0.76,0.97
1778268697.5186467,183073,-4.56,3.77,6.45,-2.21,0.73,0.96
1778268697.5762017,183095,-4.58,3.73,6.45,-1.89,0.68,0.96
1778268697.5773537,183117,-4.59,3.70,6.54,-1.81,0.50,0.83
1778268697.578045,183139,-4.65,3.67,6.44,-2.11,0.59,0.89
1778268697.6364498,183161,-4.59,3.64,6.48,-1.94,0.64,0.73
1778268697.6382406,183183,-4.56,3.70,6.37,-2.90,0.85,0.86
1778268697.639067,183205,-4.55,3.66,6.45,-2.85,0.70,0.71
1778268697.6961691,183227,-4.57,3.68,6.47,-2.34,0.76,0.86
1778268697.6979086,183249,-4.56,3.67,6.50,-1.92,0.63,0.91
1778268697.757472,183271,-4.59,3.69,6.45,-1.83,0.60,0.89
1778268697.7601938,183293,-4.62,3.68,6.47,-1.66,0.70,0.95
1778268697.7615328,183315,-4.61,3.72,6.51,-1.89,0.76,0.89
1778268697.816372,183337,-4.57,3.75,6.46,-2.46,0.78,0.70
1778268697.818062,183359,-4.63,3.72,6.53,-2.60,0.60,0.72
1778268697.819027,183381,-4.57,3.75,6.50,-2.36,0.78,0.82
1778268697.8762832,183403,-4.59,3.71,6.46,-2.05,0.60,0.89
1778268697.877827,183425,-4.56,3.69,6.45,-2.11,0.47,0.84
1778268697.9364493,183447,-4.63,3.77,6.55,-2.50,0.63,0.70
1778268697.9380405,183469,-4.57,3.71,6.56,-3.05,0.73,0.90
1778268697.938827,183491,-4.52,3.72,6.48,-2.68,0.73,0.85
1778268697.9967113,183513,-4.60,3.69,6.50,-2.12,0.88,1.06
1778268697.9981425,183535,-4.58,3.70,6.46,-1.88,0.68,1.18
1778268697.9989367,183557,-4.61,3.74,6.44,-1.68,0.81,1.05
1778268698.0560415,183579,-4.59,3.71,6.44,-2.09,0.71,0.72
1778268698.0573344,183601,-4.60,3.71,6.44,-2.27,0.68,0.79
1778268698.0581126,183623,-4.57,3.68,6.47,-2.85,0.52,0.73
1778268698.116946,183645,-4.57,3.75,6.41,-2.98,0.60,0.73
1778268698.118436,183667,-4.60,3.71,6.49,-2.41,0.63,0.83
1778268698.1764731,183689,-4.60,3.69,6.44,-1.98,0.53,0.95
1778268698.1779368,183711,-4.57,3.69,6.47,-2.17,0.71,0.66
1778268698.1788723,183733,-4.60,3.67,6.44,-2.53,0.72,0.63
1778268698.236295,183755,-4.60,3.69,6.50,-2.74,0.66,0.79
1778268698.2378294,183777,-4.64,3.73,6.49,-2.65,0.74,0.72
1778268698.2387676,183799,-4.57,3.71,6.52,-2.40,0.73,0.83
1778268698.296819,183821,-4.57,3.70,6.56,-2.42,0.66,0.85
1778268698.298103,183843,-4.61,3.73,6.41,-2.15,0.82,0.69
1778268698.2989974,183865,-4.63,3.71,6.48,-2.53,0.82,0.81
1778268698.3568225,183887,-4.58,3.68,6.48,-3.02,0.68,0.71
1778268698.3582761,183909,-4.59,3.72,6.50,-2.08,0.63,0.89
1778268698.4165552,183931,-4.65,3.74,6.46,-2.03,0.65,0.93
1778268698.4181135,183953,-4.56,3.72,6.49,-1.89,0.53,0.90
1778268698.4188073,183975,-4.62,3.75,6.50,-2.28,0.69,0.74
1778268698.4763217,183997,-4.60,3.66,6.55,-2.47,0.78,0.79
1778268698.477886,184019,-4.55,3.73,6.48,-2.71,0.74,0.77
1778268698.478717,184041,-4.60,3.65,6.48,-3.00,0.79,0.76
1778268698.5361645,184063,-4.59,3.71,6.54,-2.75,0.66,0.77
1778268698.5375257,184085,-4.62,3.76,6.48,-2.18,0.64,0.67
1778268698.5965958,184107,-4.57,3.69,6.50,-2.31,0.60,0.58
1778268698.5978112,184129,-4.63,3.71,6.47,-2.76,0.65,0.68
1778268698.5986662,184151,-4.55,3.65,6.46,-2.73,0.66,1.06
1778268698.6562448,184173,-4.64,3.74,6.44,-2.09,0.76,1.08
1778268698.6575053,184195,-4.58,3.71,6.52,-2.01,0.64,0.93
1778268698.6585698,184217,-4.62,3.69,6.55,-1.73,0.68,1.10
1778268698.715966,184239,-4.58,3.65,6.51,-1.69,0.68,0.79
1778268698.7170875,184261,-4.62,3.71,6.54,-1.86,0.61,0.84
1778268698.717843,184283,-4.63,3.66,6.46,-2.23,0.71,0.75
1778268698.7766128,184305,-4.62,3.76,6.49,-2.27,0.64,0.89
1778268698.7782912,184327,-4.63,3.68,6.40,-2.79,0.70,0.59
1778268698.8360562,184349,-4.60,3.73,6.44,-2.15,0.56,0.89
1778268698.8373137,184371,-4.59,3.68,6.54,-1.81,0.56,0.92
1778268698.8380568,184393,-4.60,3.70,6.52,-1.99,0.69,0.84
1778268698.896226,184415,-4.58,3.72,6.49,-1.77,0.65,1.02
1778268698.8974283,184437,-4.58,3.72,6.51,-2.24,0.60,0.93
1778268698.8982902,184459,-4.62,3.75,6.46,-2.33,0.61,0.70
1778268698.955947,184481,-4.58,3.70,6.49,-2.34,0.72,0.94
1778268698.9571543,184503,-4.61,3.67,6.49,-2.63,0.64,0.82
1778268698.9579422,184525,-4.61,3.76,6.49,-2.79,0.64,0.69
1778268699.016114,184547,-4.57,3.70,6.46,-2.36,0.85,0.73
1778268699.017293,184569,-4.53,3.70,6.50,-1.84,0.73,0.82
1778268699.0765982,184591,-4.63,3.74,6.41,-1.75,0.59,0.86
1778268699.077954,184613,-4.61,3.73,6.54,-2.12,0.59,0.92
1778268699.0789623,184635,-4.60,3.71,6.47,-2.50,0.56,0.74
1778268699.1359127,184657,-4.61,3.71,6.54,-2.82,0.58,0.92
1778268699.196437,184679,-4.60,3.69,6.44,-2.63,0.57,0.92
1778268699.1979568,184701,-4.58,3.73,6.50,-1.89,0.41,0.96
1778268699.1988032,184723,-4.59,3.71,6.52,-1.83,0.59,0.96
1778268699.1996021,184745,-4.55,3.68,6.52,-2.35,0.75,0.99
1778268699.2003782,184767,-4.60,3.71,6.50,-2.45,0.52,0.66
1778268699.2562363,184789,-4.57,3.73,6.40,-2.94,0.71,0.63
1778268699.2579165,184811,-4.59,3.68,6.54,-2.16,0.66,0.98
1778268699.3160381,184833,-4.59,3.69,6.49,-2.07,0.53,0.98
1778268699.3178885,184855,-4.56,3.72,6.44,-1.76,0.77,1.03
1778268699.3187609,184877,-4.60,3.73,6.49,-1.76,0.71,0.96
1778268699.37645,184899,-4.56,3.76,6.48,-1.80,0.67,0.93
1778268699.37823,184921,-4.59,3.66,6.52,-2.57,0.56,0.76
1778268699.379361,184943,-4.63,3.75,6.41,-2.80,0.76,0.79
1778268699.4364328,184965,-4.54,3.67,6.46,-2.84,0.78,0.58
1778268699.4972258,184987,-4.54,3.73,6.47,-2.69,0.72,0.87
1778268699.4987032,185009,-4.57,3.74,6.48,-2.11,0.60,0.93
1778268699.4994516,185031,-4.59,3.64,6.46,-2.52,0.59,0.73
1778268699.500235,185053,-4.62,3.70,6.46,-2.44,0.58,0.95
1778268699.5561204,185075,-4.57,3.69,6.54,-1.82,0.73,0.96
1778268699.6165373,185097,-4.56,3.73,6.48,-1.89,0.73,1.06
1778268699.619011,185119,-4.56,3.68,6.50,-1.99,0.77,0.87
1778268699.6205354,185141,-4.62,3.68,6.51,-2.81,0.76,0.67
1778268699.6217065,185163,-4.58,3.70,6.44,-2.95,0.79,0.80
1778268699.6228821,185185,-4.63,3.67,6.50,-2.20,0.56,0.82
1778268699.6766229,185207,-4.55,3.71,6.59,-1.73,0.64,0.95
1778268699.677992,185229,-4.57,3.73,6.53,-2.68,0.69,0.76
1778268699.7366068,185251,-4.55,3.66,6.46,-2.58,0.77,0.82
1778268699.7380407,185273,-4.60,3.69,6.46,-2.44,0.83,0.83
1778268699.7389278,185295,-4.58,3.70,6.49,-1.68,0.75,0.98
1778268699.7962132,185317,-4.59,3.75,6.51,-1.60,0.66,1.02
1778268699.7980523,185339,-4.52,3.68,6.43,-2.17,0.81,0.84
1778268699.79877,185361,-4.57,3.72,6.45,-2.46,0.62,0.63
1778268699.8559425,185383,-4.61,3.70,6.47,-2.71,0.85,0.86
1778268699.8572469,185405,-4.61,3.70,6.50,-2.84,0.61,0.88
1778268699.916633,185427,-4.60,3.72,6.46,-2.86,0.64,0.73
1778268699.9181092,185449,-4.56,3.66,6.55,-2.60,0.69,0.79
1778268699.9191172,185471,-4.61,3.73,6.50,-2.47,0.77,0.79
1778268699.976558,185493,-4.52,3.73,6.44,-2.49,0.80,0.74
1778268700.0362499,185515,-4.61,3.74,6.46,-2.06,0.64,0.78
1778268700.0378218,185537,-4.62,3.74,6.44,-2.19,0.60,0.73
1778268700.0388496,185559,-4.61,3.69,6.46,-2.31,0.71,0.95
1778268700.0396538,185581,-4.60,3.68,6.56,-2.40,0.69,0.74
1778268700.0406597,185603,-4.59,3.74,6.52,-2.44,0.64,0.73
1778268700.096308,185625,-4.61,3.75,6.51,-2.86,0.90,0.71
1778268700.098387,185647,-4.61,3.70,6.45,-2.81,0.70,0.79
1778268700.1563547,185669,-4.58,3.72,6.43,-2.40,0.69,0.91
1778268700.1577308,185691,-4.60,3.70,6.50,-1.80,0.62,1.08
1778268700.158608,185713,-4.61,3.73,6.42,-2.20,0.57,0.88
1778268700.2161205,185735,-4.55,3.69,6.50,-2.31,0.63,0.82
1778268700.2174523,185757,-4.58,3.73,6.51,-2.66,0.69,0.82
1778268700.2183988,185779,-4.58,3.73,6.42,-2.47,0.64,0.81
1778268700.2761645,185801,-4.59,3.68,6.41,-2.48,0.77,0.98
1778268700.2778983,185823,-4.58,3.64,6.51,-1.98,0.69,0.97
1778268700.2786596,185845,-4.64,3.69,6.52,-1.73,0.66,0.97
1778268700.3360257,185867,-4.58,3.73,6.56,-1.98,0.66,0.84
1778268700.3376822,185889,-4.59,3.73,6.50,-2.59,0.59,0.67
1778268700.396468,185911,-4.58,3.71,6.46,-2.94,0.76,0.80
1778268700.3986259,185933,-4.59,3.71,6.47,-2.40,0.76,0.79
1778268700.399612,185955,-4.59,3.77,6.50,-1.70,0.76,0.89
1778268700.45615,185977,-4.57,3.70,6.56,-1.82,0.67,0.71
1778268700.4574847,185999,-4.57,3.71,6.47,-1.95,0.69,0.75
1778268700.4583666,186021,-4.58,3.66,6.56,-2.61,0.56,0.74
1778268700.515304,186043,-4.56,3.70,6.54,-2.79,0.67,0.87
1778268700.5165272,186065,-4.61,3.71,6.50,-2.26,0.76,0.85
1778268700.5761323,186087,-4.58,3.70,6.46,-2.06,0.69,0.93
1778268700.5774877,186109,-4.51,3.71,6.50,-1.96,0.70,0.82
1778268700.5784044,186131,-4.56,3.75,6.44,-2.05,0.63,0.72
1778268700.6361432,186153,-4.60,3.68,6.47,-2.44,0.76,0.71
1778268700.6374247,186175,-4.61,3.65,6.45,-2.71,0.73,0.55
1778268700.638226,186197,-4.57,3.67,6.44,-2.84,0.75,0.67
1778268700.696589,186219,-4.55,3.72,6.45,-2.85,0.84,0.89
1778268700.69774,186241,-4.51,3.67,6.46,-2.41,0.80,0.92
1778268700.6987877,186263,-4.57,3.69,6.44,-1.90,0.61,0.92
1778268700.7559628,186285,-4.61,3.68,6.40,-2.15,0.48,0.73
1778268700.7573621,186307,-4.56,3.75,6.53,-2.35,0.57,0.68
1778268700.817508,186329,-4.60,3.72,6.42,-2.69,0.74,0.84
1778268700.81898,186351,-4.58,3.73,6.52,-2.52,0.66,0.73
1778268700.8201525,186373,-4.57,3.65,6.36,-2.79,0.70,0.82
1778268700.8793569,186395,-4.60,3.67,6.50,-3.00,0.62,0.73
1778268700.881736,186417,-4.56,3.67,6.56,-2.21,0.73,0.84
1778268700.883072,186439,-4.61,3.76,6.43,-1.92,0.66,0.96
1778268700.9366443,186461,-4.66,3.67,6.50,-1.93,0.62,0.97
1778268700.9383395,186483,-4.62,3.65,6.52,-2.12,0.85,0.86
1778268700.9394877,186505,-4.63,3.74,6.52,-2.84,0.81,0.80
1778268700.9980316,186527,-4.61,3.68,6.52,-2.63,0.82,0.88
1778268700.9993758,186549,-4.56,3.71,6.45,-2.27,0.74,0.78
1778268701.058465,186571,-4.53,3.67,6.50,-1.98,0.62,0.95
1778268701.0600088,186593,-4.59,3.74,6.46,-1.89,0.81,0.98
1778268701.0606236,186615,-4.61,3.70,6.47,-1.83,0.56,0.77
1778268701.1175764,186637,-4.54,3.67,6.55,-1.88,0.90,0.86
1778268701.1202207,186659,-4.56,3.73,6.54,-2.18,0.54,0.86
1778268701.1219456,186681,-4.56,3.67,6.47,-2.46,0.73,0.70
1778268701.1764622,186703,-4.62,3.67,6.52,-2.62,0.73,0.95
1778268701.1782954,186725,-4.62,3.66,6.47,-2.70,0.75,0.89
1778268701.2359524,186747,-4.60,3.72,6.54,-2.55,0.66,0.92
1778268701.2373285,186769,-4.56,3.71,6.45,-2.69,0.76,0.85
1778268701.238154,186791,-4.57,3.67,6.54,-2.45,0.77,0.84
1778268701.297764,186813,-4.60,3.70,6.57,-2.34,0.78,0.92
1778268701.2992423,186835,-4.59,3.74,6.47,-1.99,0.66,0.92
1778268701.3003185,186857,-4.58,3.76,6.50,-1.92,0.61,0.79
1778268701.3565037,186879,-4.67,3.74,6.53,-1.85,0.57,0.84
1778268701.3582277,186901,-4.60,3.67,6.46,-2.65,0.64,0.71
1778268701.3593853,186923,-4.53,3.69,6.47,-2.82,0.83,0.57
1778268701.4176626,186945,-4.60,3.68,6.47,-2.81,0.59,0.76
1778268701.4191005,186967,-4.58,3.72,6.51,-2.27,0.71,0.89
1778268701.4782753,186989,-4.60,3.71,6.45,-1.95,0.63,0.81
1778268701.480158,187011,-4.56,3.71,6.48,-1.99,0.65,0.81
1778268701.4814315,187033,-4.60,3.71,6.39,-1.88,0.48,0.97
1778268701.5361917,187055,-4.57,3.66,6.56,-2.01,0.63,0.77
1778268701.5373094,187077,-4.58,3.68,6.50,-2.15,0.69,0.76
1778268701.5381398,187099,-4.55,3.70,6.43,-2.64,0.76,0.79
1778268701.5959651,187121,-4.62,3.75,6.50,-2.91,0.75,0.75
1778268701.5975282,187143,-4.56,3.67,6.44,-1.82,0.82,0.92
1778268701.5982742,187165,-4.56,3.71,6.54,-1.92,0.89,0.95
1778268701.6561615,187187,-4.55,3.74,6.51,-1.96,0.59,0.85
1778268701.7162764,187209,-4.58,3.70,6.44,-2.86,0.69,0.74
1778268701.718339,187231,-4.59,3.70,6.47,-2.82,0.70,0.79
1778268701.719024,187253,-4.59,3.69,6.49,-2.01,0.70,0.95
1778268701.7201157,187275,-4.56,3.65,6.49,-2.03,0.65,0.73
1778268701.777134,187297,-4.59,3.64,6.48,-1.92,0.62,0.98
1778268701.7785785,187319,-4.59,3.66,6.42,-2.25,0.78,0.69
1778268701.7796607,187341,-4.55,3.70,6.54,-2.39,0.90,0.76
1778268701.8389297,187363,-4.58,3.64,6.47,-2.66,0.82,0.76
1778268701.8400962,187385,-4.58,3.77,6.50,-2.84,0.60,0.95
1778268701.8965933,187407,-4.61,3.70,6.47,-2.87,0.65,0.69
1778268701.898345,187429,-4.62,3.77,6.53,-2.33,0.60,0.81
1778268701.8992345,187451,-4.54,3.70,6.49,-2.00,0.60,0.99
1778268701.9575,187473,-4.53,3.72,6.45,-1.87,0.63,0.77
1778268702.0219805,187495,-4.66,3.69,6.52,-2.15,0.65,0.80
1778268702.0363598,187517,-4.57,3.70,6.49,-2.86,0.58,0.65
1778268702.0375905,187539,-4.57,3.69,6.52,-2.79,0.81,0.76
1778268702.0387037,187561,-4.59,3.68,6.47,-2.82,0.73,0.91
1778268702.0399776,187583,-4.61,3.71,6.46,-2.38,0.68,0.87
1778268702.076773,187605,-4.59,3.72,6.40,-1.95,0.73,0.99
1778268702.0786757,187627,-4.62,3.72,6.56,-1.87,0.56,0.89
1778268702.1360745,187649,-4.59,3.74,6.49,-2.81,0.66,0.72
1778268702.1374624,187671,-4.56,3.71,6.50,-2.69,0.83,0.82
1778268702.1383526,187693,-4.62,3.72,6.47,-2.66,0.69,0.85
1778268702.195953,187715,-4.61,3.76,6.52,-2.33,0.76,1.08
1778268702.1973166,187737,-4.58,3.72,6.53,-2.33,0.69,0.79
1778268702.1984265,187759,-4.56,3.76,6.44,-1.88,0.61,1.02
1778268702.2573707,187781,-4.64,3.73,6.42,-1.94,0.56,0.87
1778268702.2595992,187803,-4.57,3.68,6.53,-2.73,0.59,0.77
1778268702.2611053,187825,-4.59,3.78,6.53,-2.87,0.69,0.59
1778268702.3165133,187847,-4.61,3.66,6.47,-2.72,0.47,0.83
1778268702.3179321,187869,-4.60,3.72,6.52,-2.77,0.66,0.79
1778268702.3760886,187891,-4.58,3.70,6.47,-2.58,0.53,0.85
1778268702.4365504,187913,-4.60,3.68,6.44,-2.11,0.75,0.95
1778268702.439428,187935,-4.59,3.67,6.55,-1.82,0.73,1.08
1778268702.4404402,187957,-4.56,3.73,6.40,-1.80,0.81,0.81
1778268702.4412105,187979,-4.59,3.70,6.41,-1.69,0.66,0.73
1778268702.4420183,188001,-4.62,3.72,6.49,-2.24,0.74,0.75
1778268702.498399,188023,-4.58,3.75,6.45,-2.67,0.71,0.72
1778268702.5562127,188045,-4.58,3.73,6.44,-2.04,0.62,0.85
1778268702.5577464,188067,-4.62,3.72,6.44,-1.98,0.73,0.91
1778268702.5585577,188089,-4.55,3.75,6.47,-1.85,0.65,0.82
1778268702.5597043,188111,-4.60,3.64,6.48,-2.33,0.62,0.75
1778268702.6241639,188133,-4.63,3.69,6.44,-2.83,0.70,0.95
1778268702.6264634,188155,-4.61,3.65,6.53,-2.66,0.76,0.81
1778268702.628314,188177,-4.58,3.73,6.45,-2.19,0.79,0.98
1778268702.6763403,188199,-4.60,3.69,6.44,-1.96,0.76,0.77
1778268702.677949,188221,-4.59,3.65,6.47,-1.82,0.61,0.85
1778268702.6787012,188243,-4.57,3.72,6.46,-2.12,0.61,0.75
1778268702.7361825,188265,-4.62,3.69,6.52,-2.36,0.68,0.70
1778268702.7378027,188287,-4.53,3.73,6.53,-2.69,0.71,0.62
1778268702.7963538,188309,-4.57,3.68,6.51,-2.79,0.66,0.79
1778268702.798864,188331,-4.60,3.66,6.56,-2.82,0.69,0.82
1778268702.8006568,188353,-4.61,3.69,6.53,-3.00,0.59,0.84
1778268702.8557062,188375,-4.58,3.70,6.47,-2.69,0.88,0.73
1778268702.85711,188397,-4.63,3.71,6.51,-2.49,0.63,0.82
1778268702.8582127,188419,-4.59,3.72,6.49,-1.90,0.69,0.77
1778268702.9183547,188441,-4.63,3.74,6.47,-2.16,0.57,0.89
1778268702.920554,188463,-4.63,3.66,6.43,-2.31,0.57,0.80
1778268702.922288,188485,-4.55,3.64,6.43,-2.79,0.66,0.87
1778268702.976635,188507,-4.54,3.70,6.55,-2.60,0.69,0.81
1778268702.9779956,188529,-4.65,3.69,6.47,-2.23,0.67,0.87
1778268703.03651,188551,-4.60,3.73,6.50,-1.82,0.69,0.79
1778268703.0376964,188573,-4.54,3.76,6.53,-1.89,0.60,0.94
1778268703.0386097,188595,-4.62,3.70,6.40,-2.45,0.78,0.78
1778268703.0955787,188617,-4.57,3.67,6.53,-2.64,0.63,0.63
1778268703.0969942,188639,-4.66,3.70,6.44,-2.35,0.65,0.88
1778268703.0979338,188661,-4.58,3.67,6.48,-1.81,0.44,0.94
1778268703.156049,188683,-4.59,3.74,6.53,-2.32,0.73,0.71
1778268703.157966,188705,-4.61,3.75,6.47,-2.59,0.80,0.74
1778268703.2171874,188727,-4.62,3.71,6.52,-2.57,0.67,0.66
1778268703.2204413,188749,-4.60,3.70,6.53,-2.76,0.74,0.66
1778268703.2245371,188771,-4.62,3.72,6.52,-2.79,0.81,0.84
1778268703.27708,188793,-4.56,3.70,6.50,-2.60,0.80,0.89
1778268703.2784226,188815,-4.56,3.72,6.44,-2.58,0.83,0.82
1778268703.2795887,188837,-4.56,3.73,6.50,-2.19,0.60,1.05
1778268703.3361251,188859,-4.58,3.70,6.44,-1.88,0.76,0.90
1778268703.3372877,188881,-4.53,3.68,6.52,-2.34,0.69,0.77
1778268703.3378808,188903,-4.62,3.73,6.46,-2.68,0.64,0.71
1778268703.3958688,188925,-4.54,3.71,6.46,-2.67,0.59,0.66
1778268703.3975158,188947,-4.60,3.71,6.40,-2.79,0.59,0.85
1778268703.4558506,188969,-4.60,3.71,6.41,-2.61,0.64,0.77
1778268703.4574556,188991,-4.54,3.66,6.48,-1.80,0.70,0.99
1778268703.4582586,189013,-4.59,3.72,6.42,-1.69,0.63,1.02
1778268703.5161395,189035,-4.61,3.73,6.50,-1.82,0.69,1.01
1778268703.517855,189057,-4.58,3.64,6.52,-2.06,0.78,0.81
1778268703.5188484,189079,-4.61,3.72,6.50,-2.56,0.66,0.90
1778268703.577045,189101,-4.58,3.70,6.44,-2.27,0.79,0.84
1778268703.578517,189123,-4.56,3.71,6.53,-2.02,0.65,0.90
1778268703.5795138,189145,-4.65,3.70,6.46,-1.76,0.66,0.94
1778268703.6384604,189167,-4.62,3.73,6.52,-1.82,0.63,0.82
1778268703.6416676,189189,-4.59,3.69,6.45,-2.32,0.68,0.84
1778268703.6967409,189211,-4.58,3.71,6.47,-2.32,0.60,0.63
1778268703.697809,189233,-4.64,3.71,6.43,-2.24,0.77,0.92
1778268703.6991272,189255,-4.58,3.72,6.43,-2.34,0.68,0.79
1778268703.755809,189277,-4.59,3.73,6.48,-2.83,0.84,0.67
1778268703.816438,189299,-4.57,3.75,6.48,-2.27,0.55,0.86
1778268703.8180666,189321,-4.62,3.76,6.44,-1.75,0.62,0.82
1778268703.8190923,189343,-4.57,3.72,6.52,-1.79,0.62,0.86
1778268703.8200674,189365,-4.62,3.67,6.48,-1.69,0.66,0.92
1778268703.820928,189387,-4.63,3.70,6.44,-1.66,0.53,0.99
1778268703.876866,189409,-4.55,3.72,6.48,-1.73,0.69,0.79
1778268703.8784266,189431,-4.62,3.73,6.45,-2.08,0.79,0.73
1778268703.938747,189453,-4.58,3.74,6.49,-2.40,0.58,0.80
1778268703.9402657,189475,-4.58,3.73,6.43,-2.81,0.68,0.79
1778268703.9412782,189497,-4.57,3.70,6.50,-2.92,0.84,0.71
1778268703.9987454,189519,-4.64,3.68,6.46,-2.79,0.88,0.86
1778268704.0003502,189541,-4.56,3.76,6.46,-2.26,0.65,1.02
1778268704.001422,189563,-4.60,3.72,6.46,-1.86,0.82,0.80
1778268704.0559144,189585,-4.58,3.73,6.44,-2.73,0.69,0.79
1778268704.0572927,189607,-4.63,3.73,6.50,-3.06,0.60,0.65
1778268704.1163127,189629,-4.57,3.77,6.49,-2.81,0.63,0.86
1778268704.1181228,189651,-4.59,3.71,6.44,-2.18,0.60,0.79
1778268704.1192183,189673,-4.61,3.72,6.50,-1.72,0.59,1.10
1778268704.1779037,189695,-4.56,3.71,6.50,-1.91,0.72,1.12
1778268704.1797798,189717,-4.62,3.70,6.47,-2.61,0.76,0.73
1778268704.1811688,189739,-4.56,3.76,6.56,-2.74,0.69,0.79
1778268704.2387197,189761,-4.56,3.66,6.48,-2.69,0.82,0.93
1778268704.2410693,189783,-4.56,3.68,6.48,-2.19,0.74,0.89
1778268704.2421422,189805,-4.65,3.71,6.50,-2.10,0.79,0.75
1778268704.2963526,189827,-4.61,3.70,6.48,-1.79,0.73,0.99
1778268704.2985005,189849,-4.65,3.70,6.48,-1.86,0.71,0.89
1778268704.355695,189871,-4.64,3.72,6.51,-2.03,0.73,0.88
1778268704.3573527,189893,-4.56,3.68,6.48,-2.40,0.56,0.72
1778268704.3584511,189915,-4.57,3.72,6.46,-2.90,0.60,0.76
1778268704.4167378,189937,-4.60,3.72,6.47,-1.95,0.77,1.01
1778268704.418236,189959,-4.61,3.67,6.50,-2.01,0.50,0.85
1778268704.4191883,189981,-4.58,3.73,6.51,-2.70,0.71,0.81
1778268704.4813576,190003,-4.62,3.74,6.52,-2.73,0.78,0.69
1778268704.4831803,190025,-4.60,3.68,6.45,-2.51,0.63,0.73
1778268704.536764,190047,-4.56,3.68,6.46,-2.76,0.66,0.73
1778268704.5383236,190069,-4.55,3.68,6.44,-2.14,0.65,0.93
1778268704.539606,190091,-4.59,3.68,6.56,-1.93,0.68,0.88
1778268704.5968122,190113,-4.59,3.64,6.46,-1.91,0.81,0.90
1778268704.5990357,190135,-4.59,3.71,6.49,-1.77,0.59,1.03
1778268704.5999851,190157,-4.62,3.78,6.40,-1.82,0.67,0.92
1778268704.6561065,190179,-4.57,3.70,6.48,-1.73,0.66,0.82
1778268704.6577537,190201,-4.62,3.70,6.47,-2.25,0.82,0.80
1778268704.658753,190223,-4.66,3.73,6.51,-2.50,0.71,0.90
1778268704.716116,190245,-4.58,3.74,6.42,-2.92,0.80,0.76
1778268704.7179654,190267,-4.61,3.70,6.46,-3.01,0.79,0.66
1778268704.7764904,190289,-4.63,3.68,6.47,-2.82,0.79,0.77
1778268704.7783182,190311,-4.58,3.63,6.48,-2.69,0.73,0.85
1778268704.779424,190333,-4.62,3.73,6.46,-1.79,0.76,0.88
1778268704.8379505,190355,-4.57,3.70,6.47,-1.90,0.58,0.80
1778268704.8397176,190377,-4.57,3.65,6.44,-2.85,0.90,0.63
1778268704.8405447,190399,-4.59,3.77,6.54,-2.69,0.76,0.60
1778268704.896551,190421,-4.63,3.66,6.46,-2.97,0.60,0.74
1778268704.8979223,190443,-4.62,3.71,6.40,-2.54,0.82,0.85
1778268704.8992693,190465,-4.61,3.72,6.47,-2.10,0.66,0.74
1778268704.9569535,190487,-4.59,3.67,6.48,-2.83,0.64,0.73
1778268704.9586308,190509,-4.62,3.69,6.50,-2.64,0.74,0.76
1778268705.0171816,190531,-4.58,3.70,6.53,-2.37,0.68,0.86
1778268705.0189388,190553,-4.54,3.67,6.51,-2.02,0.79,1.01
1778268705.0199506,190575,-4.61,3.70,6.51,-2.18,0.79,1.10
1778268705.0767565,190597,-4.60,3.73,6.48,-2.09,0.70,0.92
1778268705.0783746,190619,-4.62,3.75,6.51,-1.79,0.72,0.88
1778268705.0798264,190641,-4.66,3.67,6.45,-2.04,0.69,0.82
1778268705.1359587,190663,-4.63,3.71,6.45,-2.58,0.81,0.67
1778268705.137569,190685,-4.60,3.71,6.37,-2.87,0.52,0.88
1778268705.1969688,190707,-4.62,3.76,6.44,-2.13,0.68,0.85
1778268705.1987088,190729,-4.60,3.73,6.46,-2.10,0.84,1.00
1778268705.1994443,190751,-4.59,3.69,6.52,-1.68,0.88,0.95
1778268705.2564375,190773,-4.61,3.76,6.42,-2.20,0.66,0.74
1778268705.2670774,190795,-4.58,3.70,6.44,-2.46,0.67,0.85
1778268705.2725925,190817,-4.63,3.70,6.44,-2.50,0.62,0.85
1778268705.317683,190839,-4.57,3.70,6.46,-2.41,0.79,0.56
1778268705.3782308,190861,-4.52,3.68,6.42,-2.78,0.50,0.73
1778268705.3801982,190883,-4.58,3.75,6.56,-2.84,0.67,0.81
1778268705.3816319,190905,-4.55,3.69,6.51,-2.71,0.76,0.83
1778268705.38267,190927,-4.63,3.68,6.48,-2.19,0.85,0.94
1778268705.436534,190949,-4.59,3.75,6.52,-1.95,0.73,0.95
1778268705.4378812,190971,-4.60,3.72,6.48,-1.73,0.82,0.90
1778268705.4391234,190993,-4.57,3.67,6.45,-2.02,0.54,0.94
1778268705.4982848,191015,-4.60,3.64,6.47,-2.27,0.66,0.69
1778268705.5007668,191037,-4.64,3.69,6.50,-2.83,0.67,0.77
1778268705.503105,191059,-4.60,3.71,6.49,-2.92,0.60,0.84
1778268705.5562801,191081,-4.61,3.70,6.42,-3.01,0.66,0.73
1778268705.5576878,191103,-4.54,3.66,6.53,-1.82,0.49,0.86
1778268705.558427,191125,-4.58,3.76,6.44,-2.08,0.69,0.76
1778268705.6307347,191147,-4.55,3.73,6.53,-2.30,0.64,0.88
1778268705.6334853,191169,-4.63,3.73,6.45,-2.75,0.69,0.85
1778268705.6753397,191191,-4.56,3.66,6.47,-2.11,0.79,0.82
1778268705.6765862,191213,-4.63,3.72,6.46,-1.76,0.66,0.95
1778268705.677451,191235,-4.56,3.67,6.52,-1.93,0.57,0.79
1778268705.7357504,191257,-4.61,3.75,6.48,-1.88,0.76,0.84
1778268705.7369173,191279,-4.59,3.73,6.47,-2.36,0.70,0.70
1778268705.737728,191301,-4.56,3.68,6.52,-2.87,0.60,0.85
1778268705.7956142,191323,-4.56,3.70,6.48,-2.60,0.76,0.95
1778268705.7973046,191345,-4.61,3.71,6.55,-2.44,0.51,0.84
1778268705.8560436,191367,-4.58,3.75,6.48,-1.82,0.63,0.98
1778268705.8574343,191389,-4.58,3.76,6.50,-1.83,0.57,0.92
1778268705.8584385,191411,-4.65,3.72,6.52,-1.88,0.60,0.83
1778268705.9163241,191433,-4.60,3.72,6.48,-2.56,0.61,0.66
1778268705.9176834,191455,-4.56,3.72,6.44,-2.76,0.79,0.56
1778268705.9189749,191477,-4.60,3.70,6.47,-2.92,0.73,0.82
