mac_timestamp,esp32_ms,ax,ay,az,gx,gy,gz
1778213872.5219963,164162,-1.83,7.22,5.17,-1.62,0.66,0.83
1778213872.717458,164364,-1.84,7.30,5.04,-2.92,0.75,0.79
1778213872.927058,164566,-1.83,7.20,5.13,-1.00,0.61,0.92
1778213873.1222596,164768,-1.85,7.15,5.17,-2.23,0.76,0.93
1778213873.332295,164970,-1.77,7.17,5.10,-2.52,0.60,0.82
1778213873.5291016,165172,-1.81,7.21,5.11,-2.16,0.75,0.73
1778213873.7665224,165374,-1.86,7.20,5.11,-2.09,0.83,1.01
1778213873.9473019,165576,-1.80,7.21,5.08,-1.21,0.53,0.79
1778213874.1866515,165778,-1.86,7.22,4.94,-1.66,0.98,-0.47
1778213874.3663294,165980,-2.01,7.19,4.95,10.08,3.76,-1.74
1778213874.5473213,166182,-2.07,7.55,4.66,7.98,1.81,-2.26
1778213874.7885964,166384,-2.06,7.40,4.85,-1.66,0.24,1.94
1778213874.9677773,166586,-2.04,7.55,5.08,8.48,9.49,-0.11
1778213875.146359,166788,-13.18,9.30,8.84,117.21,-97.19,-59.85
1778213875.3879309,166990,-5.89,6.13,3.94,45.95,-120.15,-106.50
1778213875.567934,167192,0.68,10.55,2.30,30.21,-196.99,-111.27
1778213875.7473626,167394,-5.43,5.84,0.46,85.34,-161.80,-1.92
1778213875.9878242,167596,-3.09,11.52,-1.97,-22.56,3.54,0.74
1778213876.1670635,167798,-2.00,7.31,4.29,2.67,1.78,-10.75
1778213876.406933,168000,-2.40,7.16,4.63,-0.42,2.78,-16.15
1778213876.5864193,168202,-3.02,6.77,5.51,36.95,58.05,-75.61
1778213876.7689426,168404,-0.35,9.76,6.53,-10.21,-134.63,-65.63
1778213877.0073256,168606,-4.87,10.90,5.08,71.18,-129.25,207.05
1778213877.1876357,168808,-16.85,-3.36,4.60,140.52,-3.86,71.88
1778213877.3683312,169010,-0.65,6.94,5.74,-39.36,-5.21,-2.25
1778213877.6068606,169212,-2.02,7.15,4.79,-13.55,-1.73,-18.78
1778213877.7876167,169414,-1.88,6.90,5.22,18.51,79.25,-65.05
1778213877.9672663,169616,-10.52,18.46,17.34,8.54,-47.11,-137.29
1778213878.208495,169818,-4.26,9.01,5.75,122.47,-107.44,236.44
1778213878.3893034,170020,-19.62,-9.07,7.61,250.13,106.85,145.85
1778213878.627954,170222,-2.05,7.43,5.27,-42.89,-27.53,-10.14
1778213878.8097844,170424,-1.59,6.95,5.96,-16.46,-4.66,-10.89
1778213878.9869342,170626,-1.94,7.25,3.65,-5.57,25.05,-17.27
1778213879.228348,170828,-17.15,17.68,11.07,-154.98,172.43,-250.14
1778213879.4093966,171030,-3.64,6.79,-1.96,-44.82,-146.09,239.45
1778213879.5873737,171232,-19.62,12.57,-2.61,53.24,84.72,250.13
1778213879.8275864,171434,-10.48,5.85,19.33,-85.88,-107.15,-64.41
1778213880.011196,171636,-1.59,7.70,3.41,-23.90,0.73,-6.30
1778213880.2471042,171838,-1.82,7.83,4.16,-10.55,-11.15,-9.57
1778213880.428959,172040,-1.53,6.72,5.66,-11.60,13.81,-6.68
1778213880.6079073,172242,-6.94,16.25,6.74,-221.22,59.74,-212.54
1778213880.848328,172444,-5.32,10.79,2.50,-109.18,-58.78,128.56
1778213881.0278597,172646,-14.33,12.06,0.04,92.69,82.38,250.13
1778213881.2106917,172848,-1.52,2.37,7.71,-244.83,136.47,-137.18
1778213881.4474845,173050,-2.78,8.67,2.85,7.69,0.24,-12.78
1778213881.6285386,173252,-2.51,7.80,4.12,-20.88,-4.62,-19.22
1778213881.8079667,173454,-3.68,6.15,4.74,18.78,43.15,-67.43
1778213882.1076627,173656,-11.25,13.58,8.47,-94.92,130.15,-250.14
1778213882.227377,173858,-3.36,8.58,1.72,78.03,-126.02,242.76
1778213882.468638,174060,-19.62,-0.81,6.12,223.14,44.31,218.04
1778213882.6509655,174262,-1.20,6.90,8.90,30.37,-61.92,-36.37
1778213882.829586,174464,-1.98,7.38,5.24,-14.19,2.48,-14.05
1778213883.068161,174666,-1.33,6.67,5.85,-3.49,8.72,-16.50
1778213883.246944,174868,-2.10,6.01,5.72,-3.66,131.53,-166.88
1778213883.427131,175070,-1.40,12.32,0.91,-11.61,-90.08,125.63
1778213883.6672928,175272,-8.84,11.25,7.68,133.59,-126.69,250.13
1778213883.9091504,175474,-2.29,13.36,-15.03,-182.09,-9.05,-147.37
1778213884.0271754,175676,-2.56,7.26,6.88,-11.74,-18.54,-8.56
1778213884.2677267,175878,-1.93,7.04,5.75,-18.19,0.27,-7.32
1778213884.508428,176080,-2.15,6.99,5.10,-7.29,1.02,-10.00
1778213884.6885388,176282,-0.18,6.71,6.48,25.40,83.79,-102.53
1778213884.8673873,176484,-8.20,14.50,16.68,18.15,-0.82,-165.99
1778213885.0466619,176686,-7.31,9.18,0.76,-45.33,-56.05,246.34
1778213885.2888308,176888,-15.97,1.93,-2.30,44.60,183.63,225.73
1778213885.47074,177090,3.62,14.62,-1.16,-150.11,-20.02,-31.49
1778213885.6473505,177292,-1.88,7.16,4.67,-18.83,-7.56,-2.29
1778213885.8875716,177494,-2.04,7.15,5.28,-12.66,-0.97,0.07
1778213886.0678022,177696,-2.00,6.74,5.64,-8.08,-1.60,-1.24
1778213886.308902,177898,-2.43,8.69,5.54,32.28,32.85,-40.13
1778213886.4873972,178100,-8.05,5.54,0.68,-220.85,209.95,188.04
1778213886.668345,178302,-6.32,9.41,-1.02,-51.98,40.61,239.33
1778213886.907727,178504,-16.74,10.68,2.52,64.89,112.35,248.62
1778213887.087419,178706,1.64,6.84,-0.54,-220.66,88.50,-131.70
1778213887.26651,178908,-2.79,7.99,3.30,-22.33,-2.98,-0.96
1778213887.5071263,179110,-2.24,7.36,4.64,-6.76,-5.79,-14.54
1778213887.6875758,179312,-2.40,7.40,4.79,15.98,7.15,-21.42
1778213887.871002,179514,-4.52,10.82,4.24,-40.81,167.38,-249.27
1778213888.106899,179716,-1.37,6.01,-1.62,-98.72,-130.05,157.64
1778213888.286842,179918,-11.54,13.55,1.58,89.83,-45.96,250.13
1778213888.528931,180120,-3.87,15.90,7.31,-211.24,88.01,-159.45
1778213888.7074614,180322,-2.35,7.39,3.49,-45.21,-1.08,-6.77
1778213888.887215,180524,-2.35,7.28,4.70,-5.83,-4.25,-16.07
1778213889.1269562,180726,-2.79,7.30,4.30,16.14,42.62,-41.73
1778213889.3084776,180928,-5.66,13.51,6.47,-157.12,107.25,-250.14
1778213889.4883711,181130,-3.81,8.87,1.22,36.28,-76.92,230.89
1778213889.727747,181332,-18.26,3.54,7.07,224.04,36.27,168.69
1778213889.9071875,181534,-2.44,8.58,7.26,5.55,-51.28,-36.46
1778213890.0873258,181736,-1.80,7.58,4.64,-14.93,-4.19,-10.51
1778213890.3278074,181938,-2.08,7.02,5.48,1.52,1.53,-23.50
1778213890.5082107,182140,-3.20,8.75,5.02,-3.68,178.57,-250.14
1778213890.747212,182342,1.40,4.10,1.67,34.49,-69.76,141.85
1778213890.926928,182544,-9.62,13.19,6.66,175.76,-101.37,230.77
1778213891.167303,182746,-1.21,-0.78,14.19,-250.14,63.60,-118.24
1778213891.3469105,182948,-1.48,7.28,5.32,-23.47,4.67,-4.89
1778213891.5270126,183150,-1.72,6.86,5.66,0.01,0.94,-19.62
1778213891.7671242,183352,-1.94,7.16,5.25,23.22,91.08,-66.22
1778213891.9472187,183554,-10.23,19.62,15.68,-8.69,-15.42,-126.27
1778213892.1329868,183756,-8.86,11.72,-0.87,43.71,-107.65,250.13
1778213892.3670201,183958,-14.94,-18.56,3.14,-155.58,17.78,-113.27
1778213892.5470116,184160,-1.53,6.54,5.79,45.06,-19.54,-7.34
1778213892.7265384,184362,-1.77,6.77,6.04,-9.27,-0.93,-14.05
1778213892.9664273,184564,-2.69,6.55,4.41,39.63,72.07,-73.49
1778213893.1471946,184766,-10.44,19.62,17.37,12.92,-49.87,-129.17
1778213893.3276045,184968,-6.20,9.78,6.23,149.05,-148.41,242.95
1778213893.5674312,185170,1.60,7.51,6.29,-208.82,34.05,-235.99
1778213893.7474263,185372,-1.91,8.15,4.62,12.44,-19.47,-7.34
1778213893.9281564,185574,-2.09,7.03,5.46,-16.49,-4.81,-14.44
1778213894.1673007,185776,-1.76,7.79,4.89,68.87,93.00,-104.05
1778213894.3500774,185978,0.44,16.37,7.58,85.97,-108.46,100.22
1778213894.5893412,186180,-8.83,12.67,7.12,169.85,-143.99,250.13
1778213894.7668326,186382,-3.62,14.50,17.48,-250.14,159.48,-136.34
1778213894.9479547,186584,-2.63,8.53,2.56,12.11,6.79,-15.22
1778213895.247059,186786,-2.34,7.79,4.41,-15.15,-8.94,-17.05
1778213895.3709972,186988,1.37,6.76,4.41,11.18,118.24,-167.41
1778213895.5481415,187190,0.93,7.87,-0.63,4.08,-139.64,164.24
1778213895.7874122,187392,-11.25,16.10,4.75,148.01,-99.26,250.13
1778213895.9682932,187594,-2.81,-1.30,11.88,-250.14,108.50,-153.29
1778213896.1478832,187796,-1.94,7.61,4.89,7.72,2.69,-4.44
1778213896.3873694,187998,-2.00,6.83,6.46,-40.17,-1.34,-11.66
1778213896.5673888,188200,-0.98,8.21,-0.65,30.14,140.34,-148.35
1778213896.8066764,188402,2.93,7.28,0.13,38.20,-94.86,86.50
1778213896.9869847,188604,-10.10,14.94,5.95,202.88,-120.20,250.13
1778213897.2269614,188806,-4.42,-4.47,9.29,-250.14,100.21,-177.40
1778213897.4077177,189008,-2.00,8.39,3.15,-17.00,3.67,-3.76
1778213897.5868492,189210,-2.11,7.27,5.11,-8.08,-4.81,-15.05
1778213897.7692206,189412,-1.45,6.50,5.46,31.40,128.69,-172.42
1778213898.0076067,189614,1.14,7.68,0.98,-3.67,-159.34,144.24
1778213898.2470946,189816,-10.61,16.32,5.06,143.39,-124.89,250.13
1778213898.4286947,190018,-4.11,2.57,14.96,-208.21,142.05,-116.66
1778213898.6097307,190220,-2.07,7.74,4.67,-9.06,-4.53,-2.27
1778213898.7893422,190422,-1.96,7.37,4.34,-29.97,-3.48,-8.52
1778213899.0278926,190624,-0.64,6.49,7.00,106.52,46.21,-107.12
1778213899.2080984,190826,-1.48,19.07,1.44,-19.65,39.46,43.04
1778213899.3871121,191028,-11.00,12.07,-1.68,86.35,-92.91,250.13
1778213899.6277745,191230,-17.34,-5.79,-5.03,-239.41,188.31,-115.74
1778213899.8069687,191432,-2.13,7.06,5.61,-58.11,-29.65,-2.24
1778213900.0468705,191634,-1.71,7.09,5.05,-22.52,-7.79,-4.96
1778213900.2266834,191836,-1.45,6.80,5.44,-9.00,3.58,-11.96
1778213900.4096217,192038,-9.48,19.62,9.38,-250.14,29.72,-209.15
1778213900.6473644,192240,-7.58,13.96,-2.89,-171.70,-97.26,233.11
1778213900.8277962,192442,-16.90,17.03,3.48,160.05,68.37,250.13
1778213901.0073593,192644,-8.06,1.54,17.53,-203.48,144.38,-144.77
1778213901.24666,192846,-1.66,7.52,5.51,-40.87,3.66,-5.67
1778213901.427285,193048,-2.05,6.42,5.76,-11.63,1.40,-15.48
1778213901.6065717,193250,-2.48,7.06,4.55,-9.06,139.17,-144.50
1778213901.8476958,193452,-0.47,10.37,1.83,-30.48,-41.31,132.86
1778213902.0277178,193654,-8.51,12.42,5.65,213.76,-149.04,250.13
1778213902.2071896,193856,0.84,16.02,-2.93,-250.14,85.02,-150.50
1778213902.4466765,194058,-2.17,7.54,3.79,-11.43,2.21,-6.97
1778213902.6281557,194260,-2.07,7.22,5.25,-27.14,2.79,-18.31
1778213902.9870038,194462,-2.38,7.35,8.13,20.12,126.53,-131.53
1778213903.046908,194664,-1.82,19.61,4.33,60.92,-98.75,119.37
1778213903.2271378,194866,-8.67,11.59,7.96,178.37,-179.37,250.13
1778213903.4671726,195068,1.64,19.62,-1.35,-250.14,35.95,-173.80
1778213903.6472352,195270,-3.09,8.53,2.50,1.59,2.05,-9.44
1778213903.8882115,195472,-2.45,7.17,4.52,-44.06,-0.76,-15.48
1778213904.0682998,195674,-1.66,8.26,4.14,17.95,139.52,-156.40
1778213904.2462518,195876,-2.20,19.62,2.85,28.29,-96.89,180.44
1778213904.4875789,196078,-9.60,16.38,6.65,151.34,-120.87,250.13
1778213904.6668556,196280,-2.04,4.05,8.68,-250.14,133.50,-181.90
1778213904.8486762,196482,-2.31,8.39,2.29,-9.54,-3.27,-10.38
1778213905.086794,196684,-2.92,6.78,4.28,-23.40,-5.97,-27.33
1778213905.2690928,196886,-0.71,4.33,4.56,32.90,170.31,-233.24
1778213905.4465065,197088,1.79,3.23,-0.42,16.84,-136.24,154.50
1778213905.686814,197290,-15.62,15.49,6.61,176.28,-84.65,250.13
1778213905.867328,197492,-7.79,2.63,19.62,-250.14,146.42,-136.95
1778213906.0470579,197694,-1.72,7.65,5.25,-38.96,5.71,2.73
1778213906.2872312,197896,-2.11,7.11,5.93,-21.29,0.42,-19.65
1778213906.4675572,198098,-1.90,4.91,7.13,43.39,154.24,-203.32
1778213906.7068403,198300,1.43,6.60,2.48,10.71,-159.49,157.54
1778213906.887416,198502,-12.69,16.92,5.18,128.34,-153.19,250.13
1778213907.0681825,198704,-10.74,8.31,19.62,-250.14,157.48,-146.44
1778213907.3066187,198906,-1.62,7.87,4.87,-1.08,1.39,-14.57
1778213907.487934,199108,-2.59,6.79,5.96,-43.41,3.49,-17.71
1778213907.6672583,199310,-2.33,6.85,3.66,-71.34,166.18,-190.47
1778213907.906312,199512,0.32,3.64,0.12,-49.11,-47.53,173.11
1778213908.086568,199714,-18.42,15.01,5.87,189.75,-79.59,250.13
1778213908.2685795,199916,-1.73,0.49,0.45,-250.14,138.96,-162.25
1778213908.5066385,200118,-1.47,7.17,5.89,-1.59,-0.63,-6.80
1778213908.6883123,200320,-2.59,7.50,5.76,0.89,-14.48,-30.76
1778213908.9272141,200522,-2.30,6.83,5.57,36.25,161.00,-194.31
1778213909.1109083,200724,1.29,6.90,1.72,-6.37,-161.66,151.98
1778213909.286672,200926,-13.73,17.57,4.56,160.14,-95.19,250.13
1778213909.587318,201128,-13.28,-0.24,19.62,-246.41,90.85,-147.79
1778213909.7071474,201330,-1.85,7.30,3.97,-51.95,1.52,-5.52
1778213909.8871555,201532,-2.29,6.55,5.37,-11.02,-3.03,-21.78
1778213910.1269317,201734,-0.77,7.86,2.47,6.33,169.55,-239.02
1778213910.308466,201936,0.62,5.40,0.18,-2.97,-105.71,134.37
1778213910.6073713,202138,-11.91,14.56,5.87,202.69,-107.59,250.13
1778213910.728383,202340,-2.33,-2.87,5.40,-193.63,68.37,-129.78
1778213910.907118,202542,-1.37,6.94,6.36,-25.83,2.72,-1.16
1778213911.148298,202744,-2.09,6.98,5.64,-23.56,-0.35,-9.97
1778213911.3270667,202946,-2.16,7.72,6.05,14.72,62.40,-73.58
1778213911.5078833,203148,-7.49,13.63,11.11,190.05,-85.50,-157.09
1778213911.7469442,203350,-2.68,3.00,11.03,214.36,-247.79,56.67
1778213911.9268172,203552,-10.99,-3.36,7.39,67.82,-117.77,-34.79
1778213912.1063075,203754,-3.00,7.88,2.98,-23.78,2.69,-8.10
1778213912.3469014,203956,-2.27,7.46,4.28,-1.71,2.05,-8.54
1778213912.526005,204158,-2.18,7.18,4.48,6.32,2.49,-18.26
1778213912.7671657,204360,-3.69,6.66,4.51,24.80,33.53,-63.82
1778213912.947254,204562,-9.34,10.59,3.82,209.37,20.65,-250.14
1778213913.1270669,204764,-2.87,0.38,12.20,126.20,-250.14,98.59
1778213913.3675852,204966,-12.67,-2.26,13.91,156.44,-132.42,63.31
1778213913.54611,205168,-0.99,7.58,7.83,-34.05,22.74,-15.37
1778213913.726054,205370,-2.06,7.10,5.29,16.56,4.08,-5.02
1778213913.9672484,205572,-2.63,7.12,3.06,6.91,-11.75,-13.78
1778213914.1469748,205774,-1.63,6.51,4.40,31.87,49.52,-46.96
1778213914.328113,205976,-6.87,9.39,3.08,9.24,133.94,-250.14
1778213914.5681639,206178,-4.99,9.65,0.48,18.24,-122.05,250.13
1778213914.7497702,206380,-19.62,1.09,13.68,237.91,-0.09,162.66
1778213915.0464077,206582,-2.14,7.50,2.11,-22.72,-25.31,-15.24
1778213915.1671379,206784,-1.91,7.21,5.29,-9.05,0.72,-12.50
1778213915.4075108,206986,-1.78,6.49,6.35,11.98,0.56,-24.48
1778213915.5888543,207188,-11.63,16.44,10.31,-113.95,182.79,-250.14
1778213915.7668867,207390,-0.99,10.08,2.78,69.30,-81.38,173.05
1778213915.9502747,207592,-19.62,10.75,7.75,165.60,-40.73,250.13
1778213916.1879606,207794,-4.53,11.54,6.30,-88.25,10.64,-29.94
1778213916.3682754,207996,-1.77,7.53,4.85,-15.80,1.66,-11.67
1778213916.6139848,208198,-2.42,6.85,5.41,3.47,3.05,-24.95
1778213916.7903264,208400,-7.06,13.60,6.41,-105.40,153.18,-250.14
1778213916.9674108,208602,-0.69,7.07,0.20,39.18,-48.21,186.37
1778213917.2678025,208804,-17.04,12.47,7.06,87.79,-34.44,250.13
1778213917.387601,209006,-17.36,8.48,19.62,-250.14,138.60,-73.37
1778213917.5667505,209208,-1.77,7.57,5.20,-13.23,0.30,-7.89
1778213917.8064728,209410,-2.68,6.69,6.06,-4.16,-0.73,-21.71
1778213917.9871228,209612,-1.89,5.98,5.76,13.63,172.31,-230.45
1778213918.167087,209814,4.24,2.66,-0.74,63.18,-123.52,65.57
1778213918.408565,210016,-12.98,15.31,10.36,203.56,-185.04,250.13
1778213918.58807,210218,-7.97,3.68,19.62,-250.14,109.28,-97.98
1778213918.8286328,210420,-1.51,7.60,4.88,-16.41,-3.92,-4.51
1778213919.0092323,210622,-1.77,6.81,5.18,-7.16,-0.70,-19.91
1778213919.1865911,210824,-4.00,9.64,3.94,-63.44,192.70,-250.14
1778213919.426673,211026,-0.04,5.30,1.13,59.60,-103.64,131.65
1778213919.6078928,211228,-19.62,14.52,9.07,223.15,-8.99,250.13
1778213919.7863443,211430,-3.04,15.63,-1.60,-172.88,39.08,-61.38
1778213920.147076,211632,-1.97,7.52,4.60,-21.56,3.69,-11.55
1778213920.2106416,211834,-1.83,6.32,6.22,-2.68,5.16,-26.89
1778213920.447455,212036,-19.62,19.62,8.62,-158.66,185.19,-250.14
1778213920.6269624,212238,-1.28,8.67,4.35,78.13,-126.11,226.39
1778213920.8078625,212440,-19.62,-12.38,8.70,250.13,0.20,179.72
1778213921.0465915,212642,-2.26,9.87,6.96,-22.96,-45.55,-34.74
1778213921.2271655,212844,-2.22,7.45,4.89,-18.24,-2.96,-19.79
1778213921.4658766,213046,-1.74,6.54,6.77,81.42,41.70,-74.07
1778213921.6465845,213248,2.89,19.62,17.77,-66.40,100.27,-203.17
1778213921.8272297,213450,-5.54,9.60,4.93,147.38,-159.74,250.13
1778213922.0073135,213652,-19.62,-6.87,4.82,-98.08,56.26,-48.57
1778213922.246717,213854,-2.32,6.21,7.35,14.40,-28.92,-14.36
1778213922.4263997,214056,-2.26,7.11,4.17,-40.49,1.78,-12.34
1778213922.666836,214258,-2.28,7.82,2.02,38.22,101.06,-90.66
1778213922.84696,214460,-0.45,19.35,9.69,80.94,-88.83,59.34
1778213923.0273833,214662,-7.09,10.93,8.16,188.14,-174.98,249.95
1778213923.2672062,214864,-10.68,19.62,0.71,-250.14,125.51,-178.69
1778213923.4462569,215066,-2.25,7.63,3.73,-26.92,1.95,-5.43
1778213923.6880105,215268,-1.87,7.09,5.48,-0.82,-5.79,-18.93
1778213923.8684556,215470,-0.00,7.08,4.91,11.82,108.11,-115.25
1778213924.0470858,215672,0.09,16.17,5.14,-13.55,-50.03,92.47
1778213924.2264442,215874,-12.30,15.93,-1.47,47.94,-100.16,250.13
1778213924.4668665,216076,-16.38,-6.84,6.08,-21.21,138.23,-76.48
1778213924.6504462,216278,-1.86,8.50,3.05,-35.89,-10.57,-21.56
1778213924.888301,216480,-2.13,6.93,5.96,-21.58,-3.44,-4.75
1778213925.0676274,216682,-1.25,6.95,5.37,-7.78,12.93,-8.80
1778213925.2463193,216884,-5.95,15.69,8.38,-185.81,125.76,-183.40
1778213925.4873717,217086,-5.55,10.97,3.89,-137.97,1.08,141.58
1778213925.6672752,217288,-13.65,15.02,-3.18,106.32,35.98,250.13
1778213925.8458838,217490,-19.62,19.62,-19.32,-250.14,194.18,-86.91
1778213926.088182,217692,-2.30,8.58,2.19,42.87,-6.98,-10.12
1778213926.2676303,217894,-1.95,7.29,5.03,-23.05,-0.34,-9.31
1778213926.4468136,218096,-1.43,6.44,5.78,65.41,45.59,-57.95
1778213926.6866415,218298,0.74,13.91,3.28,-223.13,125.50,-250.14
1778213926.8676949,218500,-4.31,8.72,2.98,126.29,-160.14,246.75
1778213927.10699,218702,-19.62,-4.08,5.90,224.40,98.79,64.79
1778213927.2865758,218904,-0.26,5.79,2.85,-58.00,-21.16,-12.98
1778213927.4687762,219106,-2.21,7.30,4.45,-13.62,-0.88,-18.78
1778213927.7086577,219308,-1.91,6.39,3.45,58.68,62.33,-76.75
1778213927.8866708,219510,0.58,19.62,12.74,-15.53,47.01,-162.25
1778213928.066454,219712,-5.29,7.51,7.69,152.17,-195.07,216.63
1778213928.3065882,219914,-19.62,-3.63,4.76,94.26,105.76,4.12
1778213928.490418,220116,-2.01,5.65,6.83,-74.91,-15.73,-6.66
1778213928.7282112,220318,-1.89,7.19,5.17,-15.22,-5.69,-16.93
1778213928.9080174,220520,-1.65,6.67,6.78,46.86,56.62,-74.63
1778213929.0883136,220722,-9.62,19.62,16.32,79.86,-7.06,-170.92
1778213929.3263118,220924,-6.64,10.67,3.52,77.93,-152.75,250.13
1778213929.509694,221126,-19.62,-11.12,-0.02,-117.52,36.97,-43.27
1778213929.687126,221328,-2.85,5.51,12.31,-16.78,-14.39,-18.17
1778213930.0472882,221530,-2.19,6.87,5.24,-38.77,-2.93,-16.99
1778213930.1073997,221732,-2.48,7.40,4.39,40.31,93.24,-88.76
1778213930.2868583,221934,-0.45,19.62,6.76,74.47,-86.27,34.63
1778213930.5260923,222136,-8.02,10.21,9.10,168.50,-223.98,226.21
1778213930.76667,222338,2.54,19.62,-11.85,-250.14,6.89,-199.71
1778213930.9482956,222540,-2.49,8.28,4.32,20.47,-7.49,-8.27
1778213931.1275146,222742,-2.10,7.20,4.96,-20.31,-0.91,-14.79
1778213931.3065784,222944,-1.14,6.41,4.65,23.66,98.95,-92.86
1778213931.5477595,223146,1.10,16.96,6.61,5.30,-70.69,15.60
1778213931.7265859,223348,-8.10,12.25,2.60,82.77,-140.04,250.13
1778213931.9071722,223550,-0.56,6.38,-9.15,-229.73,127.02,-205.73
1778213932.1468818,223752,-1.68,6.98,7.21,30.28,-26.27,-15.94
1778213932.3271663,223954,-2.00,6.65,6.37,-28.31,1.78,-13.45
1778213932.50815,224156,-1.64,6.70,5.53,69.18,93.01,-82.02
1778213932.7460418,224358,0.80,14.73,3.32,29.64,14.65,17.11
1778213932.9290822,224560,-6.58,9.81,6.45,156.42,-164.37,243.82
1778213933.1664436,224762,-19.28,-2.34,6.12,-78.23,43.38,-69.76
1778213933.3514078,224964,-2.91,6.04,8.52,-2.20,-17.02,-13.21
1778213933.5264275,225166,-1.39,5.47,4.94,-15.54,4.66,-25.60
1778213933.7678955,225368,-2.21,6.63,4.68,40.37,78.56,-75.31
1778213933.9474158,225570,-2.66,19.62,11.34,38.73,24.59,-168.98
1778213934.1262567,225772,-5.37,8.99,4.16,102.59,-146.39,245.93
1778213934.3671646,225974,-19.62,-7.07,-12.12,-250.14,134.44,-153.92
1778213934.5453997,226176,-2.28,7.59,4.29,45.73,-46.95,-19.62
1778213934.7866106,226378,-1.97,6.96,5.53,-31.76,2.31,-10.16
1778213934.9674902,226580,-2.47,6.24,7.05,52.40,45.59,-67.33
1778213935.1466587,226782,3.49,13.89,8.48,-95.85,108.88,-237.93
1778213935.387036,226984,-5.93,9.26,4.13,84.53,-115.41,250.13
1778213935.5667856,227186,-19.62,-2.36,7.96,244.34,146.61,131.40
1778213935.7467775,227388,-0.89,7.24,7.19,-8.44,-32.50,-25.89
1778213935.9864779,227590,-1.96,7.51,4.52,-25.32,-4.47,-12.58
1778213936.166434,227792,-1.73,6.96,5.34,-10.88,2.04,-7.62
1778213936.3481092,227994,-2.83,11.40,7.52,-85.84,166.28,-208.09
1778213936.5871265,228196,-3.97,8.92,2.61,-123.96,21.37,170.21
1778213936.768056,228398,-14.73,13.93,-7.52,3.78,132.08,250.13
1778213937.00564,228600,-15.66,-0.78,2.51,38.87,-5.10,40.69
1778213937.189764,228802,-0.99,5.93,7.39,-54.27,-48.30,-16.52
1778213937.3667154,229004,-1.71,7.20,4.75,-33.19,-10.20,-8.94
1778213937.6115313,229206,-2.03,6.83,4.99,-3.23,3.05,-16.08
1778213937.7859995,229408,-6.52,12.21,7.55,-164.98,87.63,-235.88
1778213937.9665937,229610,-4.07,8.64,5.21,-50.94,-27.82,144.94
1778213938.2061572,229812,-13.62,13.04,-1.01,126.21,25.60,250.13
1778213938.3864934,230014,5.25,19.62,-1.46,-250.14,130.09,-90.22
1778213938.566151,230216,-2.24,8.38,3.68,67.69,-7.51,-13.78
1778213938.8069713,230418,-1.88,6.61,6.19,-21.16,-0.93,-11.79
1778213938.987468,230620,-1.90,8.48,4.51,18.38,87.27,-70.24
1778213939.2260923,230822,-1.39,19.62,6.45,23.76,76.16,67.64
1778213939.4096813,231024,-3.85,8.21,12.06,191.40,-178.50,214.80
1778213939.586768,231226,-0.73,19.62,8.07,-250.14,-57.21,-200.33
1778213939.8287604,231428,-2.89,8.44,4.88,19.37,-11.93,-9.89
1778213940.0066168,231630,-1.36,7.12,5.81,6.11,-2.70,-33.82
1778213940.1865482,231832,-2.21,5.63,5.01,17.32,102.89,-105.50
1778213940.4278042,232034,-1.76,19.62,-0.91,69.95,-125.13,-40.34
1778213940.608436,232236,-7.55,8.40,9.40,143.25,-244.69,211.92
1778213940.8469493,232438,5.62,2.04,-2.08,-181.85,83.86,-189.05
1778213941.0262628,232640,-1.25,6.88,5.75,51.73,-25.44,-10.16
1778213941.2073183,232842,-1.31,6.07,7.36,5.44,-7.92,-25.12
1778213941.4480455,233044,-1.86,7.59,5.21,19.37,85.87,-79.59
1778213941.6271574,233246,-15.80,19.62,9.15,-80.31,118.80,-250.14
1778213941.80703,233448,-7.13,8.57,2.32,94.48,-155.03,250.13
1778213942.0467749,233650,-19.62,-5.82,6.72,89.34,48.16,7.83
1778213942.2267387,233852,-1.09,5.43,9.01,-52.16,13.70,-9.45
1778213942.4065027,234054,-2.09,6.99,4.88,-30.62,-6.34,-13.95
1778213942.6469467,234256,-1.79,6.80,6.31,26.90,82.54,-68.21
1778213942.8264942,234458,-0.52,12.04,5.52,-13.61,134.62,-250.14
1778213943.0675075,234660,-5.76,8.00,3.58,106.75,-158.83,250.13
1778213943.3062901,234862,-19.62,-6.06,3.60,109.72,94.30,49.86
1778213943.4274292,235064,-1.05,6.38,5.26,-49.24,-6.55,-13.70
1778213943.6661992,235266,-2.03,7.26,4.48,-3.69,-3.05,-18.32
1778213943.8458035,235468,-2.15,6.59,4.03,45.64,71.55,-83.22
1778213944.027612,235670,-0.99,19.62,16.05,46.48,81.03,-233.76
1778213944.266461,235872,-6.46,9.65,3.19,106.58,-153.23,250.13
1778213944.4460373,236074,-5.97,8.79,-16.43,-250.14,180.11,-179.27
1778213944.6265395,236276,-2.09,6.04,5.63,-36.25,-12.83,-11.18
1778213944.8664837,236478,-1.88,7.09,4.99,-32.66,0.37,-15.76
1778213945.0459867,236680,-1.92,8.70,2.89,28.64,135.11,-128.47
1778213945.286884,236882,2.28,8.87,-0.26,39.08,-75.31,111.66
1778213945.4665992,237084,-9.62,13.34,7.13,203.47,-146.04,250.13
1778213945.6457062,237286,-0.25,5.99,10.38,-250.14,143.21,-106.37
1778213945.886301,237488,-1.63,7.49,4.00,-21.19,8.02,-4.02
1778213946.0655718,237690,-1.48,6.48,6.38,-24.09,-0.38,-16.71
1778213946.2465653,237892,-3.27,9.65,1.19,-11.66,145.15,-127.61
1778213946.4864836,238094,-0.67,15.38,1.69,67.05,-118.00,74.32
1778213946.6677692,238296,-8.12,11.89,8.63,190.11,-174.92,237.82
1778213946.9070182,238498,6.12,19.62,-19.62,-250.14,119.96,-85.24
1778213947.0877209,238700,-2.20,7.87,5.58,31.01,5.72,-8.55
1778213947.2668757,238902,-2.06,7.07,5.04,-24.91,-1.24,-12.49
1778213947.5065877,239104,-1.88,6.92,2.13,60.74,76.75,-77.47
1778213947.7468886,239306,-5.50,13.75,11.43,17.92,77.15,-244.53
1778213947.8670974,239508,-6.63,9.50,2.52,110.50,-148.22,250.13
1778213948.1059618,239710,-18.88,-12.31,2.62,-99.30,143.40,-50.44
1778213948.3468418,239912,-2.22,7.46,2.62,-30.24,-14.39,-19.10
1778213948.5266469,240114,-1.99,7.44,4.86,-17.02,-2.72,-8.81
1778213948.7063322,240316,-2.54,7.13,4.64,-13.50,4.66,-11.31
1778213948.8877993,240518,-9.51,19.62,7.65,-169.48,156.34,-250.14
1778213949.1263537,240720,-5.57,12.86,-0.69,-156.21,-63.35,205.58
1778213949.3071845,240922,-15.44,14.45,-3.30,75.25,66.06,250.13
1778213949.4865508,241124,-18.28,19.62,-12.40,-250.14,250.13,-114.64
1778213949.7263741,241326,-1.92,8.16,4.38,38.85,-9.13,-11.03
1778213949.9066236,241528,-1.75,6.84,5.67,-30.00,0.59,-9.32
1778213950.0859444,241730,-1.87,6.83,4.89,8.68,71.06,-51.77
1778213950.3268747,241932,-7.27,19.62,1.58,-250.14,142.15,-27.27
1778213950.5053074,242134,-7.32,8.99,-1.12,40.70,-126.39,250.13
1778213950.746798,242336,-19.62,2.05,11.70,168.69,-8.97,150.05
1778213950.926218,242538,-3.46,5.08,7.51,-105.16,-10.10,-0.33
1778213951.1067567,242740,-2.09,7.07,4.82,-8.45,-1.82,-18.95
1778213951.3475087,242942,-2.06,6.31,5.63,28.94,6.79,-38.72
1778213951.5298736,243144,-19.03,15.52,9.05,-138.98,160.34,-250.14
1778213951.7075012,243346,-1.43,8.39,2.05,95.08,-138.20,185.79
1778213951.9469175,243548,-19.62,2.05,13.40,211.87,-19.26,247.67
1778213952.1286094,243750,-1.67,11.33,3.62,-44.90,-1.16,-11.76
1778213952.305968,243952,-1.74,7.19,5.57,-21.19,-2.77,-18.52
1778213952.551535,244154,-1.87,6.62,5.06,30.40,16.63,-35.27
1778213952.7260537,244356,-19.40,16.18,10.60,-88.48,196.05,-250.14
1778213952.9665637,244558,-0.71,8.95,2.22,91.21,-121.76,186.34
1778213953.206998,244760,-19.62,4.45,12.65,200.61,-47.95,250.13
1778213953.32644,244962,-0.31,11.24,3.71,-10.32,-22.09,-16.53
1778213953.5658364,245164,-1.96,7.09,5.63,-22.90,-0.53,-17.06
1778213953.7470894,245366,-2.19,6.78,5.34,25.44,28.18,-38.98
1778213953.928401,245568,-19.06,14.69,8.75,-103.01,189.88,-250.14
1778213954.1663535,245770,-1.64,9.03,2.21,96.92,-155.13,189.54
1778213954.3457484,245972,-19.62,-2.11,11.58,250.13,-55.56,215.30
1778213954.526677,246174,-1.62,8.26,3.83,20.21,-28.24,-25.70
1778213954.7664263,246376,-1.80,7.54,4.62,-33.55,-1.50,-15.98
1778213954.9474254,246578,-2.04,5.50,3.73,38.50,40.69,-60.87
1778213955.1863365,246780,-10.22,14.03,8.46,-137.85,140.47,-250.14
1778213955.3665547,246982,-2.53,5.45,5.56,110.49,-129.37,226.91
1778213955.5468743,247184,-19.62,-19.62,13.09,250.13,13.44,100.49
1778213955.789397,247386,-3.93,6.07,3.60,-104.36,-25.82,9.59
1778213955.9673438,247588,-2.11,6.89,4.94,-16.56,-4.02,-20.36
1778213956.146708,247790,-1.92,6.69,5.63,36.51,38.71,-52.65
1778213956.386504,247992,-13.00,14.63,10.19,-77.25,171.40,-250.14
1778213956.566411,248194,-3.53,10.84,1.06,56.73,-135.25,246.57
1778213956.8067927,248396,-19.62,-8.52,12.15,250.13,86.92,215.85
1778213956.9875531,248598,-1.16,7.85,3.54,1.03,-26.70,-15.70
1778213957.1660295,248800,-2.00,7.78,4.44,2.14,-5.30,-19.70
1778213957.407385,249002,-1.82,6.73,6.51,28.65,10.18,-39.84
1778213957.5862086,249204,-18.96,17.15,12.09,-201.53,109.60,-250.14
1778213957.7668521,249406,-2.34,7.57,2.73,67.38,-114.53,228.93
1778213958.0064368,249608,-19.62,1.79,13.90,250.13,-22.19,202.42
1778213958.1872475,249810,-1.44,8.90,2.19,-37.95,-28.85,-6.12
1778213958.3662608,250012,-1.74,6.98,6.14,-23.19,1.64,-9.94
1778213958.6064134,250214,-1.87,6.33,6.38,31.11,1.25,-39.63
1778213958.7856967,250416,-15.90,19.56,10.71,-12.30,250.13,-250.14
1778213959.027147,250618,-0.59,8.31,2.32,66.47,-145.19,174.74
1778213959.207179,250820,-19.62,10.35,12.76,245.22,-53.79,250.13
1778213959.3860736,251022,-4.22,8.36,9.75,-54.80,-13.36,-39.53
1778213959.6276083,251224,-2.17,7.12,4.86,-36.85,-0.02,-9.48
1778213959.8057091,251426,-2.52,6.50,5.41,-0.99,4.83,-17.32
1778213959.9865358,251628,-8.80,15.72,6.84,-55.05,221.57,-250.14
1778213960.226318,251830,0.93,4.61,-0.07,41.21,-119.43,126.65
1778213960.4067135,252032,-19.62,15.50,4.73,165.92,-7.64,250.13
1778213960.5858662,252234,-7.70,9.04,13.90,-141.63,3.59,-53.53
1778213960.8860843,252436,-1.63,7.52,5.05,-29.85,0.53,-8.08
1778213961.0065763,252638,-1.85,6.90,5.30,-14.15,0.95,-5.05
1778213961.2463524,252840,-0.44,8.58,5.08,24.00,142.10,-134.80
1778213961.4294102,253042,-5.97,2.86,1.30,-239.56,62.32,248.82
1778213961.6054015,253244,-13.23,13.53,-9.71,-1.73,63.73,250.13
1778213961.8467894,253446,-19.62,8.01,6.98,169.54,238.16,130.50
1778213962.0266101,253648,-2.40,8.61,3.69,-27.70,-3.60,-19.79
1778213962.2063491,253850,-2.05,7.67,4.49,-3.73,-0.34,-3.46
1778213962.446504,254052,-1.90,7.45,4.61,-0.23,3.91,-14.38
1778213962.630996,254254,-2.70,8.43,0.77,-56.39,127.04,-152.41
1778213962.8062303,254456,-3.96,13.72,3.44,-68.35,52.98,185.63
1778213963.0462039,254658,-11.14,12.08,-0.63,113.97,-101.89,250.13
1778213963.2266936,254860,-12.21,-0.65,2.12,-62.71,5.23,-145.58
1778213963.4673395,255062,-1.61,6.90,4.83,18.26,-17.20,-10.42
1778213963.6462247,255264,-0.98,5.05,6.86,-10.89,3.27,-21.53
1778213963.825925,255466,-2.12,6.75,5.25,19.51,27.47,-43.53
1778213964.0662816,255668,-17.47,15.75,7.50,-124.34,125.99,-250.14
1778213964.2459092,255870,-3.02,7.58,5.75,92.72,-4.71,250.13
1778213964.4263413,256072,-19.62,-10.79,10.76,73.44,-244.33,93.69
1778213964.6658893,256274,-3.20,9.44,6.67,25.40,13.40,-15.91
1778213964.8484392,256476,-2.55,7.72,4.44,13.92,7.89,-19.65
1778213965.0865428,256678,-2.67,7.33,4.60,19.90,4.56,-24.40
1778213965.266045,256880,-4.35,10.30,0.17,-35.15,178.31,-250.14
1778213965.5073597,257082,-1.08,4.46,-1.53,-100.68,-94.13,163.73
1778213965.6869378,257284,-11.02,12.66,2.00,77.99,-22.65,250.13
1778213965.8659165,257486,-3.09,16.59,-4.96,-250.14,81.15,-134.80
1778213966.0453691,257688,-2.12,7.23,4.70,0.78,9.02,-10.10
1778213966.2871947,257890,-2.63,6.62,5.31,-1.36,1.89,-27.76
1778213966.4664373,258092,-3.53,6.48,5.30,10.20,114.08,-154.12
1778213966.645735,258294,2.63,1.76,3.19,16.36,72.49,80.66
1778213966.9461102,258496,-7.23,10.51,4.40,86.34,-233.89,244.01
1778213967.06814,258698,-11.82,19.62,-17.12,-250.14,38.24,-231.82
1778213967.3665915,258900,-2.06,7.88,3.84,-11.18,10.24,-9.40
1778213967.4859786,259102,-2.18,6.80,5.53,3.92,3.82,-14.94
1778213967.6662962,259304,-2.90,8.89,6.05,-0.32,78.15,-85.15
1778213967.9060428,259506,-9.29,19.62,14.75,-8.08,-40.22,-89.92
1778213968.0866237,259708,-6.35,9.41,3.99,147.47,-131.37,250.13
1778213968.2675304,259910,5.64,8.73,-0.87,-226.15,100.18,-204.11
1778213968.5665362,260112,-0.99,6.11,6.93,-24.65,-2.21,-13.73
1778213968.687356,260314,-2.19,6.95,4.97,-24.39,3.66,-18.20
1778213968.9256792,260516,-2.92,7.10,2.58,5.85,103.44,-94.66
1778213969.1058145,260718,-1.02,16.12,6.15,7.08,-26.45,65.68
1778213969.2862074,260920,-8.12,9.83,3.70,134.32,-132.10,250.13
1778213969.5256147,261122,3.41,19.62,-19.62,-250.14,105.14,-192.06
1778213969.7085805,261324,-1.83,7.84,3.91,-20.83,-2.98,-5.81
1778213969.94576,261526,-1.71,6.64,3.37,5.04,-4.21,-24.78
1778213970.1261888,261728,-2.94,9.39,1.69,-46.57,136.77,-142.25
1778213970.3060606,261930,-0.39,8.22,1.03,-60.92,-9.31,153.08
1778213970.4859686,262132,-9.46,12.24,6.93,225.69,-163.44,250.13
1778213970.7263396,262334,-6.91,7.48,-2.31,-250.14,128.55,-154.49
1778213970.9061763,262536,-1.71,7.73,4.18,-7.13,12.79,-10.58
1778213971.146507,262738,-2.08,7.02,5.64,-17.24,0.38,-19.99
1778213971.3255167,262940,-3.20,5.69,3.39,35.89,139.55,-165.34
1778213971.5064719,263142,-0.51,11.75,1.63,18.54,-158.97,146.87
1778213971.7472322,263344,-9.41,13.63,6.22,162.40,-166.27,250.13
1778213971.9861062,263546,-1.69,5.64,-0.13,-250.14,108.24,-161.01
1778213972.1055937,263748,-2.24,8.39,2.35,-5.40,13.56,-14.80
1778213972.3481946,263950,-2.32,7.50,5.05,20.01,2.54,-21.92
1778213972.528799,264152,-2.19,7.50,3.54,18.15,125.70,-148.69
1778213972.7660542,264354,-1.51,16.51,2.10,-7.18,-131.05,85.58
1778213972.9473886,264556,-10.38,12.80,4.05,158.66,-148.22,250.13
1778213973.1260183,264758,1.58,18.63,5.40,-190.11,129.36,-157.74
1778213973.3671687,264960,-2.19,8.01,6.00,-22.88,-11.12,-4.87
1778213973.6058204,265162,-2.02,7.30,5.16,-15.94,-4.53,-8.83
1778213973.7263417,265364,-1.88,6.89,4.98,-21.97,7.68,-10.85
1778213973.9660196,265566,-10.89,17.71,9.52,-151.27,166.69,-250.14
1778213974.1459713,265768,-5.13,12.70,-2.48,-154.99,-93.36,154.44
1778213974.3255436,265970,-18.44,16.11,-2.25,108.72,73.61,250.13
1778213974.5661983,266172,-2.28,3.76,12.44,-250.14,102.89,-120.73
1778213974.8668654,266374,-2.05,8.02,5.11,-26.52,-19.15,-9.14
1778213974.9859924,266576,-1.93,6.74,5.64,-22.81,-2.24,-7.99
1778213975.1664267,266778,-1.69,6.08,7.62,5.67,53.50,-33.44
1778213975.345492,266980,-10.90,16.59,3.23,-250.14,59.72,-231.30
1778213975.5863197,267182,-4.63,8.63,-1.71,20.11,-146.11,224.46
1778213975.7663236,267384,-19.62,9.24,9.19,250.13,106.40,250.13
1778213975.9467053,267586,-5.00,7.09,13.17,-109.76,24.63,-40.22
1778213976.2461894,267788,-1.51,7.45,4.38,-8.51,1.43,-11.23
1778213976.366479,267990,-1.84,6.43,6.22,-8.43,5.38,-18.97
1778213976.5462239,268192,-2.57,9.38,3.00,-2.21,199.07,-250.14
1778213976.7865024,268394,-0.12,4.90,1.50,-11.80,-117.73,150.45
1778213976.9657543,268596,-12.79,15.87,6.54,224.59,-90.55,250.13
1778213977.2062867,268798,-6.85,5.99,19.62,-250.14,99.78,-158.46
1778213977.4501133,269000,-1.56,7.28,5.58,-9.40,0.90,-10.07
1778213977.5662212,269202,-2.10,6.54,5.77,-11.85,3.03,-15.19
1778213977.8056724,269404,-0.95,3.53,9.74,26.47,165.31,-210.02
1778213977.9853604,269606,-0.34,6.73,2.72,-22.13,-114.69,168.40
1778213978.1670282,269808,-11.21,16.62,7.67,182.63,-140.23,250.13
1778213978.4062476,270010,-12.91,11.68,19.62,-250.14,84.05,-119.34
1778213978.5870519,270212,-1.80,7.21,5.70,-33.05,8.34,-5.69
1778213978.7660913,270414,-2.17,7.18,4.77,-0.68,1.88,-17.55
1778213979.0059607,270616,-1.90,6.20,4.35,27.65,164.11,-208.44
1778213979.1859355,270818,0.04,4.97,2.17,-78.79,-132.23,119.70
1778213979.4264297,271020,-12.63,16.94,6.97,215.23,-152.31,250.13
1778213979.606673,271222,-19.62,11.57,19.62,-250.14,232.37,-134.31
1778213979.789774,271424,-1.98,8.46,4.36,-47.96,10.82,-8.02
1778213980.0266292,271626,-3.47,7.26,4.45,2.21,0.68,-28.24
1778213980.2063851,271828,-3.10,5.82,4.97,26.03,180.07,-247.43
1778213980.3858056,272030,1.65,2.24,1.56,-22.66,-141.61,132.49
1778213980.625835,272232,-13.29,13.86,7.29,188.20,-100.95,250.13
1778213980.8078692,272434,-4.80,8.15,5.31,-142.77,-8.73,-54.60
1778213981.0459573,272636,-1.70,7.18,5.18,-26.86,1.86,-8.37
1778213981.285776,272838,-1.50,6.64,6.20,19.63,2.03,-32.70
1778213981.4056292,273040,-7.07,14.47,5.31,-54.92,233.51,-250.14
1778213981.645667,273242,-0.21,2.52,-1.30,14.46,-128.16,194.72
1778213981.825621,273444,-19.62,14.82,10.31,189.43,-19.70,250.13
1778213982.007615,273646,-4.72,6.70,9.24,56.33,-110.66,-63.89
1778213982.2471128,273848,-2.11,7.27,5.32,-21.54,5.66,-11.65
1778213982.4261484,274050,-2.04,7.32,4.74,33.01,20.03,-47.22
1778213982.6058702,274252,-19.62,15.41,7.21,1.31,227.47,-250.14
1778213982.8456542,274454,-1.06,7.47,6.21,48.55,-124.39,221.74
1778213983.026322,274656,-19.62,3.10,9.65,192.44,-67.60,237.70
1778213983.26608,274858,-0.48,14.00,2.87,61.60,-98.69,-48.14
1778213983.448899,275060,-2.08,7.36,4.45,-15.94,-0.40,-14.60
1778213983.6264894,275262,-2.72,6.14,4.06,35.56,37.82,-53.09
1778213983.8666773,275464,-9.15,15.02,6.51,-15.44,105.50,-250.14
1778213984.04603,275666,-5.23,8.80,1.26,89.26,-121.89,250.13
1778213984.2275162,275868,-19.62,-4.04,-0.00,107.68,108.41,12.18
1778213984.4675612,276070,-1.44,6.22,7.71,-47.55,-12.37,3.21
1778213984.6460743,276272,-2.04,6.96,5.09,-23.18,8.77,-14.72
1778213984.826001,276474,-1.62,4.52,2.11,15.96,79.05,-109.51
1778213985.0669777,276676,-3.91,19.62,3.66,54.50,-15.87,-37.61
1778213985.2458794,276878,-8.13,9.48,4.65,126.21,-130.68,250.13
1778213985.4858596,277080,2.54,1.56,19.62,-250.14,130.10,-155.87
1778213985.666925,277282,-1.05,6.83,5.80,-32.84,-11.91,-1.61
1778213985.8459601,277484,-1.92,7.04,5.55,-30.73,-2.82,-11.23
1778213986.087074,277686,-1.86,6.59,5.86,41.54,28.62,-32.96
1778213986.2655287,277888,-2.40,15.73,2.08,-250.14,135.73,-223.02
1778213986.4460886,278090,-9.35,14.27,-16.64,-191.89,-70.25,250.13
1778213986.685878,278292,-19.62,12.77,-1.21,156.14,32.41,250.13
1778213986.8663077,278494,-2.45,9.11,10.07,-98.91,-7.69,-53.85
1778213987.1057506,278696,-1.63,7.23,4.92,-4.11,13.90,-5.82
1778213987.2852414,278898,-2.20,7.10,5.11,-4.28,6.15,-7.76
1778213987.4665892,279100,-2.20,8.32,4.56,17.22,82.29,-89.69
1778213987.7060108,279302,-2.85,19.62,1.72,-142.24,78.74,84.70
1778213987.8861916,279504,-8.72,10.02,-4.72,24.91,-126.35,250.13
1778213988.06558,279706,-19.62,-13.11,5.85,44.89,55.49,30.96
1778213988.306049,279908,-1.18,6.19,7.95,-65.97,-5.66,-3.46
1778213988.4859324,280110,-1.94,6.59,5.39,-17.11,5.10,-14.73
1778213988.7262487,280312,-2.27,6.90,5.00,22.69,64.27,-72.04
1778213988.9098456,280514,13.61,19.62,4.98,-214.60,20.27,-148.26
1778213989.0851138,280716,-4.81,5.78,9.28,116.63,-58.02,250.13
1778213989.3856063,280918,-19.62,-10.23,9.18,187.76,-250.14,8.31
1778213989.5657623,281120,-1.44,7.76,3.97,-8.47,-4.95,-19.39
1778213989.686372,281322,-2.31,7.88,3.89,-16.79,6.59,-11.65
1778213989.9259155,281524,-2.42,7.21,5.17,54.07,5.72,-36.95
1778213990.1056378,281726,-17.75,15.29,11.72,-29.63,250.13,-250.14
1778213990.285934,281928,-1.95,12.00,-7.23,-28.60,-140.55,226.90
1778213990.52659,282130,-19.62,12.16,10.10,56.82,-103.27,250.13
1778213990.705644,282332,-2.75,3.62,9.20,-139.15,0.92,-63.68
1778213990.888063,282534,-2.32,7.54,4.67,-15.97,8.84,-15.15
1778213991.1257691,282736,-3.16,6.72,4.38,10.97,8.95,-44.96
1778213991.3065958,282938,-19.62,19.62,11.99,111.70,208.48,-250.14
1778213991.5469923,283140,-0.25,4.96,6.47,12.31,-157.51,211.21
1778213991.7259526,283342,-19.62,12.67,8.34,165.96,-78.16,250.13
1778213991.90563,283544,-3.57,8.68,14.27,-39.25,-67.08,-47.37
1778213992.1453412,283746,-1.83,7.16,4.82,-27.89,1.33,-10.37
1778213992.3259177,283948,-1.70,6.66,5.28,40.68,22.34,-40.18
1778213992.505731,284150,-18.39,15.45,10.42,-110.24,179.56,-250.14
1778213992.7452972,284352,-1.97,8.76,1.08,56.62,-137.29,216.10
1778213992.9857733,284554,-19.62,3.43,13.78,250.13,-38.10,250.13
1778213993.1654692,284756,-3.31,11.56,-3.69,-40.10,-6.30,-32.49
1778213993.3457537,284958,-2.22,7.34,5.27,-10.28,-1.95,-25.53
1778213993.5273175,285160,-2.25,7.05,5.26,29.44,57.44,-44.98
1778213993.765716,285362,-9.50,15.76,5.88,-231.28,133.50,-250.14
1778213993.9468408,285564,-5.00,10.37,-0.18,43.26,-148.10,250.13
1778213994.1249197,285766,-19.62,-6.66,7.90,250.13,-52.89,146.31
1778213994.3664262,285968,-2.74,7.56,8.97,-37.08,-28.21,-35.47
1778213994.5495877,286170,-1.89,7.01,5.30,-11.40,-1.34,-15.98
1778213994.7257185,286372,-2.39,7.35,4.99,33.85,56.01,-55.32
1778213994.9682271,286574,-7.69,14.19,9.88,-43.08,142.71,-250.14
1778213995.1452916,286776,-3.07,5.97,4.60,97.10,-164.04,219.45
1778213995.387387,286978,-19.62,-19.62,9.70,250.13,-27.05,137.76
1778213995.5656362,287180,-1.99,5.05,5.73,-2.08,-33.02,-36.91
1778213995.7455964,287382,-1.99,7.07,5.62,-19.95,-1.44,-9.45
1778213995.9879353,287584,-1.63,6.69,4.29,44.22,63.26,-78.32
1778213996.169208,287786,-1.95,16.47,6.19,-30.05,146.54,-250.14
1778213996.3462746,287988,-4.21,7.47,3.74,132.88,-132.73,250.13
1778213996.5860186,288190,-19.62,-12.55,11.07,136.02,56.17,55.15
1778213996.767636,288392,-1.92,6.18,10.40,15.11,-14.10,-12.08
1778213996.9449,288594,-1.72,7.14,5.24,-32.87,-0.08,-9.03
1778213997.1856656,288796,-1.16,6.09,5.98,26.51,49.85,-39.86
1778213997.485525,288998,-4.87,12.53,6.22,-167.78,120.27,-250.14
1778213997.6062157,289200,-6.55,8.32,0.90,22.12,-114.76,250.13
1778213997.7855754,289402,-19.62,3.12,3.44,250.13,192.66,160.98
1778213997.9654417,289604,-1.81,9.17,1.28,-4.46,-12.82,-24.86
1778213998.2057626,289806,-2.00,7.28,5.20,-19.44,-3.74,-9.62
1778213998.386684,290008,-1.66,6.90,5.49,1.77,5.67,-7.19
1778213998.5662234,290210,-6.11,16.12,10.03,-157.27,126.66,-250.14
1778213998.8074665,290412,-6.34,12.35,2.12,-190.34,-48.32,180.61
1778213998.9862208,290614,-13.21,15.12,-2.19,112.66,63.92,250.13
1778213999.225927,290816,-3.60,17.22,6.74,-250.14,140.99,-143.89
1778213999.4058886,291018,-1.61,7.42,5.83,33.42,-11.21,-6.66
1778213999.5854702,291220,-2.00,6.66,5.25,-26.82,7.98,-16.02
1778213999.8261015,291422,-2.38,7.14,5.66,33.14,89.85,-70.93
1778214000.0051112,291624,-7.04,19.62,9.98,-184.18,128.81,-71.63
1778214000.1850808,291826,-6.36,8.54,1.24,87.33,-118.99,250.13
1778214000.425905,292028,-19.62,-6.09,6.21,212.38,63.42,88.71
1778214000.6072924,292230,-3.57,6.64,4.99,-85.74,-49.12,-2.21
1778214000.7855122,292432,-1.89,7.11,5.30,-10.92,2.41,-13.68
1778214001.0266416,292634,-2.03,7.23,6.88,54.80,38.24,-65.29
1778214001.2124333,292836,-8.37,11.23,4.58,-56.21,153.19,-250.14
1778214001.4457586,293038,-3.18,7.27,4.66,108.41,-143.80,236.63
1778214001.6867058,293240,-19.62,-19.62,14.56,250.13,-59.62,151.76
1778214001.8073423,293442,-1.45,7.48,4.56,-53.26,-3.05,-9.53
1778214002.0455987,293644,-1.99,7.47,4.80,-27.32,-4.25,-16.56
1778214002.2257144,293846,-3.47,10.93,4.20,5.96,61.36,-61.60
1778214002.4064372,294048,-11.99,17.72,10.47,-77.78,155.30,-250.14
1778214002.6463432,294250,-3.60,10.00,2.74,72.02,-135.34,241.11
1778214002.8283033,294452,-19.62,-16.18,9.52,250.13,-23.71,155.76
1778214003.005631,294654,-2.23,7.62,3.88,-21.66,-28.27,-14.05
1778214003.2502208,294856,-2.00,7.21,5.59,-18.58,-0.46,-12.76
1778214003.4258828,295058,-2.73,7.74,5.41,32.31,37.85,-47.54
1778214003.6655438,295260,-16.57,14.90,8.06,-80.43,181.00,-250.14
1778214003.8496633,295462,-1.45,9.62,0.81,106.85,-136.59,213.83
1778214004.0858526,295664,-19.62,-10.33,10.74,238.74,-33.93,221.36
1778214004.265525,295866,-1.96,6.17,4.23,-62.72,-19.05,4.52
1778214004.4456766,296068,-1.81,7.40,5.07,-40.32,-9.85,-10.91
1778214004.625219,296270,-1.71,7.04,5.01,25.03,35.55,-59.88
1778214004.8660972,296472,-11.01,15.03,7.14,-91.85,147.71,-250.14
1778214005.0454187,296674,-2.91,7.65,3.58,103.25,-129.28,250.13
1778214005.2854185,296876,-19.62,-19.62,7.42,250.13,40.22,106.82
1778214005.4670918,297078,-2.10,6.46,8.76,-29.08,-32.28,-36.30
1778214005.6453831,297280,-1.79,7.14,5.03,-23.05,2.03,-14.33
1778214005.9470527,297482,-0.77,7.26,5.56,31.98,32.30,-72.11
1778214006.065908,297684,-3.21,14.43,10.47,13.88,113.85,-250.14
1778214006.2458196,297886,-4.97,5.38,10.03,56.76,-100.34,250.13
1778214006.4862561,298088,-19.62,-11.10,10.62,248.73,-118.07,33.69
1778214006.6658719,298290,-3.77,8.36,5.75,-7.44,16.77,-21.65
1778214006.8454318,298492,-1.51,7.24,5.18,-29.49,-3.40,-5.47
1778214007.0857913,298694,-2.09,6.78,5.86,5.71,-3.44,-29.11
1778214007.3278263,298896,-16.28,19.62,12.78,-75.36,225.12,-250.14
1778214007.5050805,299098,-0.34,9.54,4.61,56.63,-67.49,221.84
1778214007.6851542,299300,-19.62,-4.39,1.33,72.69,-2.18,250.13
1778214007.8656888,299502,-1.84,9.03,1.48,11.23,-38.22,-20.51
1778214008.1071825,299704,-1.75,7.90,4.60,-27.84,-9.51,-17.21
1778214008.2872736,299906,-2.09,7.44,4.10,-32.44,-6.34,-16.56
1778214008.4648268,300108,-9.43,15.58,4.62,-219.99,62.33,-250.14
1778214008.7057228,300310,-2.45,9.06,7.07,-5.88,0.08,185.21
1778214008.887734,300512,-17.31,14.88,6.20,144.15,-118.84,250.13
1778214009.0657961,300714,-4.60,8.37,8.37,-174.59,-44.12,-75.26
1778214009.3062162,300916,-2.01,7.77,3.69,-17.06,0.81,-12.60
1778214009.4872305,301118,-2.16,6.18,5.38,-1.85,-5.48,-18.31
1778214009.7856624,301320,-3.32,10.13,3.21,-12.02,201.43,-250.14
1778214009.905595,301522,1.10,4.95,0.56,-36.08,-102.26,150.02
1778214010.0880566,301724,-19.54,15.78,0.72,76.64,-45.18,250.13
1778214010.3252883,301926,-5.83,9.27,16.20,-179.01,123.30,-149.93
1778214010.506659,302128,-1.95,7.12,6.94,4.75,4.88,-4.43
1778214010.6863067,302330,-1.72,7.43,4.39,-5.12,-4.51,-4.87
1778214010.9279382,302532,-1.82,6.66,5.56,-15.27,5.29,-8.51
1778214011.1061134,302734,-5.76,18.46,6.18,-250.14,100.11,-211.44
1778214011.3463626,302936,-6.09,12.24,1.75,-160.68,-35.21,147.36
1778214011.5264642,303138,-11.12,13.35,-2.11,98.30,77.08,250.13
1778214011.7064142,303340,5.70,19.62,-2.94,-240.76,40.22,-77.54
1778214011.9461327,303542,-3.33,8.14,5.53,-86.69,-23.48,-7.15
1778214012.1270616,303744,-1.93,7.60,5.26,-3.74,-2.43,-17.22
1778214012.3064163,303946,-2.11,7.44,4.77,29.89,27.42,-33.82
1778214012.5460384,304148,-14.74,17.26,5.33,-199.15,57.03,-250.14
1778214012.7869635,304350,-4.78,10.04,-0.67,14.79,-89.55,227.69
1778214012.9053767,304552,-19.62,3.17,10.67,250.13,-42.42,212.18
1778214013.1467223,304754,-2.05,6.55,7.37,6.19,-38.36,-24.17
1778214013.324619,304956,-2.11,7.20,4.99,18.21,0.91,-12.90
1778214013.5653965,305158,-2.66,7.30,4.55,14.32,0.38,-26.77
1778214013.7466047,305360,-6.75,12.27,6.54,-23.78,194.21,-250.14
1778214013.928157,305562,1.95,6.81,3.63,124.61,21.31,177.02
1778214014.1666498,305764,-17.38,11.75,10.27,28.11,-123.89,250.13
1778214014.3463132,305966,-3.76,5.06,5.57,-77.27,14.66,-28.56
1778214014.5256822,306168,-2.07,7.65,4.79,30.26,1.09,-11.74
1778214014.7656176,306370,-2.38,8.10,4.05,-6.19,-15.60,-31.25
1778214014.9458323,306572,-3.83,7.71,2.84,41.81,225.27,-250.14
1778214015.126196,306774,0.95,2.22,0.17,-25.57,-143.53,179.31
1778214015.3654664,306976,-16.73,16.52,4.73,141.66,-91.24,250.13
1778214015.5469666,307178,-5.05,11.46,7.42,-129.22,-4.26,-24.68
1778214015.7857354,307380,-1.95,7.44,5.59,4.35,-1.91,-13.94
1778214015.9646187,307582,-2.25,6.64,5.82,11.53,-8.38,-24.08
1778214016.1457896,307784,-10.85,17.05,6.27,-161.41,130.12,-250.14
1778214016.445334,307986,1.38,5.71,4.99,41.11,-107.78,190.18
1778214016.5663433,308188,-19.62,19.32,9.72,147.59,-63.21,250.13
1778214016.7460756,308390,-2.47,8.16,7.17,7.20,-19.65,-40.53
1778214016.985304,308592,-1.94,7.74,3.88,-25.07,6.83,-15.31
1778214017.1668158,308794,-1.77,6.84,4.47,35.38,19.16,-42.77
1778214017.4053347,308996,-17.67,19.62,7.41,-136.94,198.14,-250.14
1778214017.587304,309198,-3.73,8.15,2.29,55.24,-119.35,243.76
1778214017.7656379,309400,-19.62,-3.04,8.09,191.72,28.44,177.95
1778214018.0656543,309602,-1.38,11.68,-1.66,-11.18,-28.65,-34.65
1778214018.185732,309804,-2.45,7.55,4.67,-13.71,-3.08,-15.53
1778214018.3654304,310006,-2.32,7.01,3.77,34.64,14.49,-57.11
1778214018.6050105,310208,-0.47,19.62,13.85,19.35,129.34,-250.02
1778214018.7869596,310410,-5.34,9.74,3.68,56.27,-184.87,238.65
1778214018.9656498,310612,-19.62,-12.58,7.60,212.93,43.79,100.34
1778214019.2056444,310814,-1.20,5.61,8.39,-34.66,-25.27,-37.43
1778214019.4472134,311016,-2.03,7.79,4.54,-22.89,-4.34,-12.97
1778214019.6264925,311218,-1.63,6.62,4.95,62.44,24.34,-55.09
1778214019.8058348,311420,-6.30,14.84,2.10,-113.02,171.65,-250.14
1778214019.9879878,311622,-4.10,7.65,3.68,79.56,-127.36,250.13
1778214020.225646,311824,-19.62,-14.31,10.67,250.13,4.66,95.66
1778214020.4652867,312026,-2.52,4.76,7.70,-25.08,-53.46,-36.47
1778214020.5876787,312228,-2.14,7.27,4.81,-29.28,0.23,-15.82
1778214020.8253145,312430,-1.06,7.33,4.38,64.59,47.24,-71.40
1778214021.0097234,312632,-1.08,12.05,12.06,-53.24,59.05,-178.27
1778214021.1876032,312834,-5.09,7.02,5.81,123.83,-185.34,223.04
1778214021.4275231,313036,-19.62,-12.11,8.74,242.98,75.66,96.51
1778214021.605335,313238,-2.44,6.79,5.08,4.01,-25.93,-19.02
1778214021.845096,313440,-2.04,7.25,5.00,-37.28,-2.94,-10.83
1778214022.0254366,313642,-1.64,6.83,5.36,9.83,13.94,-22.52
1778214022.2053616,313844,-13.01,17.18,8.28,-199.79,157.80,-250.14
1778214022.4456952,314046,-4.55,12.72,-2.96,-116.08,-77.89,250.13
1778214022.625733,314248,-19.62,5.15,-5.20,-10.89,250.13,250.13
1778214022.8053377,314450,-1.88,9.96,2.27,-7.05,-1.40,4.79
1778214023.1055434,314652,-1.47,8.76,3.90,-2.46,2.13,-0.34
1778214023.2279184,314854,-2.23,8.62,2.69,9.23,-3.66,-14.21
1778214023.4660854,315056,-2.41,7.56,4.10,-49.90,2.35,-11.72
1778214023.6445239,315258,-4.12,10.23,3.24,-90.02,141.81,-238.45
1778214023.8255775,315460,-2.34,5.61,0.06,-178.22,3.53,144.31
1778214024.0673065,315662,-11.04,14.23,-3.61,96.27,-32.63,250.13
1778214024.2474113,315864,8.96,19.62,-9.93,-250.14,80.57,-112.35
1778214024.4252243,316066,-2.98,8.79,2.56,0.09,-9.01,-3.86
1778214024.6659937,316268,-2.03,7.04,5.83,-27.85,-0.37,-12.47
1778214024.9051166,316470,-1.56,7.14,5.82,50.93,81.64,-88.34
1778214025.0261362,316672,-1.52,18.28,-0.64,-59.53,53.20,-20.12
1778214025.2652771,316874,-5.80,9.50,3.19,119.48,-144.53,250.13
1778214025.5051322,317076,-19.62,-4.29,3.48,4.45,107.06,-23.05
1778214025.6884444,317278,-0.59,6.56,6.19,-68.54,-4.60,-9.62
1778214025.8652995,317480,-1.91,7.38,5.50,-26.73,-0.05,-18.54
1778214026.0459766,317682,-1.32,6.90,5.20,92.92,52.35,-76.76
1778214026.2854362,317884,-12.59,19.62,15.94,23.21,-16.22,-125.26
1778214026.4657702,318086,-5.36,8.45,6.74,126.89,-167.25,238.85
1778214026.6453319,318288,-19.62,-3.99,2.22,27.77,67.64,-27.85
1778214026.8853595,318490,-1.59,5.56,8.65,-93.77,27.98,-6.18
1778214027.0709207,318692,-2.37,7.39,4.29,-15.47,-0.79,-14.59
1778214027.2485569,318894,-1.83,7.14,4.02,50.41,70.10,-69.81
1778214027.4851131,319096,-15.26,19.62,16.89,43.85,-22.96,-141.69
1778214027.665479,319298,-6.16,7.27,7.39,122.34,-169.27,241.72
1778214027.9053664,319500,-19.62,-14.97,7.79,138.60,69.67,24.04
1778214028.0852892,319702,-0.96,5.74,4.89,-15.85,-23.05,-28.24
1778214028.26569,319904,-1.77,7.45,5.38,-3.25,-9.84,-22.34
1778214028.5056136,320106,-1.82,6.87,3.87,55.90,60.05,-53.92
1778214028.685054,320308,1.88,11.74,5.93,-34.56,101.85,-234.95
1778214028.8651736,320510,-3.93,6.44,6.20,124.26,-150.78,233.27
1778214029.1051247,320712,-19.62,-16.28,13.66,218.40,76.71,71.43
1778214029.285385,320914,-1.89,7.04,5.48,-39.31,-20.39,-16.71
1778214029.5250814,321116,-2.04,6.66,5.57,-29.18,-0.17,-15.31
1778214029.70743,321318,-1.74,6.58,5.53,49.73,68.34,-63.10
1778214029.8850646,321520,4.43,6.31,2.57,-30.63,121.90,-248.17
1778214030.125348,321722,-5.32,8.31,2.45,83.07,-58.82,250.13
1778214030.3062556,321924,-19.62,-8.71,7.55,77.94,-96.05,-35.45
1778214030.4859238,322126,-0.74,5.95,6.83,-72.20,10.68,-2.25
1778214030.7246792,322328,-2.08,7.43,5.20,-6.06,-10.40,-25.27
1778214030.9049947,322530,-2.53,6.55,5.23,16.43,86.37,-95.29
1778214031.0855536,322732,-0.69,19.62,0.06,61.99,-67.50,-9.77
1778214031.3256006,322934,-7.87,7.55,12.94,143.12,-224.47,243.48
1778214031.5046837,323136,-5.45,19.62,-19.62,-176.02,61.31,-96.62
1778214031.745631,323338,-2.45,7.53,5.30,-42.27,-9.95,-14.29
1778214031.9252093,323540,-1.85,7.16,5.44,4.73,-1.86,-21.11
1778214032.10583,323742,-3.88,9.06,3.11,10.27,109.58,-103.57
1778214032.3453705,323944,-1.79,19.62,7.38,25.09,-9.93,-41.19
1778214032.5283937,324146,-9.74,10.44,2.86,134.19,-127.10,250.13
1778214032.7076342,324348,2.53,15.56,5.49,-250.14,122.51,-161.47
1778214032.9448495,324550,-2.18,6.77,6.76,9.40,-9.04,-14.27
1778214033.1250467,324752,-2.10,7.33,5.07,6.89,-0.11,-16.18
1778214033.305122,324954,-1.43,6.33,5.56,41.03,67.81,-87.39
1778214033.5453062,325156,-9.75,19.62,12.13,31.09,-19.24,-138.60
1778214033.7267585,325358,-7.96,8.81,1.62,57.95,-105.59,250.13
1778214033.9656653,325560,-19.62,-4.49,5.45,98.25,129.75,73.91
1778214034.145521,325762,-1.88,7.16,-0.49,-137.50,-24.34,-27.45
1778214034.325431,325964,-1.66,7.11,4.67,-21.06,-0.77,-8.06
1778214034.5663693,326166,-1.37,7.00,5.41,1.02,3.05,-13.12
1778214034.745489,326368,-6.82,19.36,10.22,-147.16,174.03,-250.14
1778214034.9256976,326570,-5.85,11.30,1.05,-196.89,-29.83,152.92
1778214035.1645138,326772,-12.19,12.79,-3.49,85.60,75.07,250.13
1778214035.346088,326974,4.16,13.29,-8.91,-145.66,213.06,-120.56
1778214035.6465082,327176,-1.60,7.25,6.12,-35.95,-11.78,-1.02
1778214035.766044,327378,-2.13,7.17,5.59,-14.40,4.31,-11.32
1778214035.9456635,327580,-2.05,6.90,5.33,32.66,18.86,-25.27
1778214036.1851966,327782,-12.53,19.13,7.12,-161.09,83.95,-250.14
1778214036.3653271,327984,-3.68,9.16,1.79,-6.88,-67.62,176.37
1778214036.545069,328186,-17.98,11.68,2.41,158.03,22.74,250.13
1778214036.7858872,328388,-3.20,-5.25,19.62,-250.14,-2.71,-72.63
1778214036.9649212,328590,-2.03,7.42,4.74,-14.13,0.65,-3.00
1778214037.1468785,328792,-2.37,6.90,5.57,-27.08,-0.89,-10.12
1778214037.3844774,328994,-2.29,7.93,4.52,14.57,61.44,-60.65
1778214037.5655782,329196,2.45,14.61,-4.08,3.07,49.41,35.40
1778214037.805282,329398,-7.16,6.42,9.94,49.44,-126.86,228.01
1778214037.985173,329600,-19.61,-10.62,2.45,158.57,-171.73,21.98
1778214038.1647162,329802,-2.27,8.44,2.67,-10.47,1.82,-10.79
1778214038.4052444,330004,-2.23,7.31,4.46,-3.47,0.94,-12.73
1778214038.585652,330206,-2.88,7.29,3.31,-5.63,6.41,-40.47
1778214038.7648814,330408,-9.88,19.62,8.32,14.97,250.13,-250.14
1778214039.0053346,330610,1.18,7.76,-2.15,46.21,-169.27,101.36
1778214039.185297,330812,-19.62,11.38,3.74,136.39,-26.78,250.13
1778214039.4250836,331014,-0.62,5.05,3.46,-165.55,-27.74,-55.66
1778214039.6055043,331216,-1.73,7.63,4.08,-43.54,-1.08,0.82
1778214039.784847,331418,-1.92,6.91,5.27,-15.60,-1.95,-12.96
1778214040.0256805,331620,-3.16,7.65,4.21,-27.24,172.54,-190.79
1778214040.2098463,331822,0.16,5.95,1.40,42.49,51.38,107.04
1778214040.3862188,332024,-8.17,12.61,4.10,31.80,-167.65,250.13
1778214040.6254487,332226,-1.92,7.14,-0.73,-250.14,144.17,-185.48
1778214040.8049061,332428,-1.87,8.13,2.74,6.63,3.45,-9.41
1778214040.984674,332630,-1.87,7.09,5.29,-5.73,-2.62,-18.82
1778214041.2254093,332832,0.43,7.55,3.54,3.24,108.72,-114.45
1778214041.4060743,333034,-0.64,17.76,5.42,-3.08,-76.11,21.87
1778214041.6445115,333236,-7.12,9.53,5.20,157.13,-169.18,246.74
1778214041.8250165,333438,-15.98,2.66,4.91,-140.91,53.41,-114.50
1778214042.0049117,333640,-1.52,7.66,2.31,-45.42,-25.40,-21.60
1778214042.2453597,333842,-2.06,7.19,5.30,-14.37,-3.19,-16.69
1778214042.4250534,334044,-3.61,8.33,3.98,17.48,86.34,-91.61
1778214042.6048565,334246,-1.06,19.62,0.85,32.21,-34.40,-4.61
1778214042.8595345,334448,-5.32,8.94,5.36,157.90,-170.40,247.49
1778214043.0259016,334650,9.56,17.21,-9.40,-250.14,120.27,-90.62
1778214043.2049956,334852,-1.64,5.49,5.52,-39.99,-7.04,-8.74
1778214043.4449544,335054,-1.92,7.04,4.83,-18.98,-3.74,-15.45
1778214043.6358688,335256,0.46,6.13,4.21,48.93,62.07,-87.02
1778214043.8658938,335458,-4.09,19.62,1.94,42.86,-39.73,-12.51
1778214044.0452976,335660,-6.68,9.04,5.88,164.08,-195.38,232.71
1778214044.2282455,335862,-0.31,7.80,-16.63,-250.14,80.92,-209.21
1778214044.5255442,336064,-1.04,6.96,5.53,-8.45,1.17,-10.08
1778214044.6456008,336266,-1.82,6.82,6.02,-8.71,-1.15,-16.04
1778214044.825357,336468,-1.97,7.07,4.01,52.79,67.60,-80.22
1778214045.0649886,336670,-7.58,19.62,-3.49,43.78,-27.25,-51.98
1778214045.30592,336872,-5.12,7.35,5.86,173.53,-185.29,216.68
1778214045.4258127,337074,-19.62,6.50,-4.73,-250.14,105.37,-117.15
1778214045.6655328,337276,-3.12,8.55,2.53,-45.86,-6.66,-14.40
1778214045.8453252,337478,-1.68,7.09,5.76,-27.47,-9.11,-9.53
1778214046.085504,337680,-0.89,6.38,6.63,45.28,40.20,-43.93
1778214046.2679012,337882,-8.58,19.62,9.35,67.23,43.35,-165.08
1778214046.4447985,338084,-4.71,9.10,3.53,84.78,-119.98,236.39
1778214046.685779,338286,-19.62,-8.38,7.38,133.19,137.31,68.12
1778214046.8649359,338488,-1.33,8.66,2.76,9.70,-18.78,-17.34
1778214047.044879,338690,-1.95,7.74,4.59,-42.09,-3.89,-13.92
1778214047.2866895,338892,-1.86,6.57,6.24,6.66,21.06,-15.54
1778214047.4659276,339094,-10.27,19.62,10.01,-231.69,175.62,-250.14
1778214047.705399,339296,-5.67,13.05,-2.40,-241.25,-98.85,178.08
1778214047.884757,339498,-14.54,15.93,-4.19,52.40,137.78,250.13
1778214048.0650759,339700,-0.35,11.43,7.07,-226.80,159.41,-86.51
1778214048.3050127,339902,-1.65,7.61,5.58,-35.36,-8.10,-1.59
1778214048.485077,340104,-1.82,6.76,6.14,-12.31,-4.58,-9.50
1778214048.7252846,340306,-1.47,6.55,5.17,-5.98,27.73,-34.98
1778214048.905444,340508,-3.67,14.82,6.27,-229.15,85.01,-250.14
1778214049.0875375,340710,-3.14,7.52,-0.62,60.12,-123.15,206.44
1778214049.324736,340912,-19.62,-9.46,5.99,136.75,-39.86,217.76
1778214049.5044093,341114,-4.28,9.68,0.03,47.31,-39.46,-17.81
1778214049.684882,341316,-1.80,7.92,4.04,-33.24,5.35,-9.32
1778214049.9250443,341518,-2.13,6.77,4.97,8.38,3.64,-28.05
1778214050.1057847,341720,-10.76,17.51,9.19,-59.33,229.72,-250.14
1778214050.2848046,341922,-0.17,9.95,0.66,48.51,-91.27,134.60
1778214050.5267031,342124,-19.62,11.77,9.21,224.71,-50.66,250.13
1778214050.767657,342326,-3.17,17.77,-14.63,-167.72,44.53,-54.10
1778214050.8872154,342528,-2.01,7.37,4.46,5.37,1.60,-12.98
1778214051.1255567,342730,-2.00,6.89,5.36,31.57,4.31,-28.76
1778214051.3049946,342932,-3.99,10.18,1.15,43.82,229.76,-250.14
1778214051.485732,343134,0.74,0.84,1.55,-20.50,-157.22,110.14
1778214051.7287729,343336,-14.54,14.68,3.97,170.18,-133.73,250.13
1778214051.9059522,343538,-11.87,-2.93,19.62,-250.14,168.22,-142.20
1778214052.145377,343740,-1.63,7.97,3.56,-6.99,-3.96,-5.07
1778214052.3275318,343942,-1.38,6.85,7.15,-1.05,1.46,-22.58
1778214052.5050316,344144,-0.05,4.28,3.70,4.49,165.27,-205.14
1778214052.7452202,344346,0.22,4.43,2.59,-90.34,-103.02,116.53
1778214052.9284396,344548,-8.96,15.13,3.84,144.65,-130.22,250.13
1778214053.1046164,344750,-13.70,12.58,19.62,-250.14,199.06,-132.95
1778214053.3448856,344952,-1.85,8.11,3.71,28.10,-2.35,-13.50
1778214053.5250273,345154,-1.65,6.42,7.35,-13.40,-0.29,-9.45
1778214053.765502,345356,-1.19,7.15,3.21,-34.47,159.80,-173.66
1778214053.9448116,345558,0.42,6.24,0.40,-71.82,-6.68,150.79
1778214054.1250725,345760,-8.56,11.53,7.18,153.78,-169.60,250.13
1778214054.3646307,345962,0.42,0.50,2.53,-250.14,145.82,-215.02
1778214054.5453768,346164,-1.58,8.27,4.35,19.17,-15.42,-19.70
1778214054.7847998,346366,-1.75,6.39,5.66,-27.73,1.34,-10.76
1778214054.96588,346568,-1.54,5.25,4.13,87.31,131.97,-159.94
1778214055.1476579,346770,1.44,5.67,3.25,-54.98,-53.91,119.90
1778214055.3242903,346972,-11.94,15.60,7.27,167.51,-222.40,250.13
1778214055.566865,347174,-17.58,9.58,19.62,-250.14,91.03,-93.18
1778214055.7460663,347376,-1.09,8.86,2.41,-18.76,-7.50,-20.85
1778214055.9848201,347578,-1.72,7.17,5.03,-15.15,2.50,-25.81
1778214056.1659052,347780,-2.36,5.88,0.50,-16.09,113.60,-114.84
1778214056.40532,347982,-0.36,15.51,1.89,-77.90,32.39,114.98
1778214056.5856395,348184,-8.95,9.53,5.14,83.44,-155.50,250.13
1778214056.7649517,348386,18.53,9.74,-9.03,-231.23,-10.48,-189.71
1778214056.9443274,348588,-2.41,6.20,6.85,14.98,-10.58,-13.60
1778214057.1860135,348790,-1.83,7.13,5.18,-11.40,0.34,-15.02
1778214057.365326,348992,-2.75,7.01,5.05,48.89,83.34,-92.77
1778214057.5439832,349194,-8.77,19.62,8.60,126.76,-48.31,-117.07
1778214057.7860117,349396,-6.89,8.34,5.66,137.62,-200.00,250.13
1778214057.964842,349598,8.47,19.62,-8.53,-250.14,136.85,-168.37
1778214058.2062318,349800,-2.42,7.56,4.55,-42.97,-12.14,-11.91
1778214058.3853033,350002,-1.95,7.17,5.61,-8.66,-2.01,-8.82
1778214058.5655296,350204,-1.25,6.31,5.38,61.04,42.53,-52.86
1778214058.8050268,350406,-3.69,11.64,14.62,43.52,127.76,-238.87
1778214058.9847665,350608,-5.22,7.32,4.76,60.11,-132.31,250.13
1778214059.1649468,350810,-19.62,-4.83,5.05,242.09,154.27,105.83
1778214059.4048545,351012,-0.71,6.62,7.30,-9.07,-34.09,-30.35
1778214059.5914822,351214,-1.71,7.16,5.11,-19.80,-4.47,-15.73
1778214059.8248496,351416,-1.67,6.60,5.88,11.89,7.23,-19.56
1778214060.0085948,351618,-10.13,19.62,8.91,-219.27,150.57,-250.14
1778214060.184526,351820,-4.26,11.19,-0.30,-172.02,-47.54,206.47
1778214060.4248486,352022,-16.79,16.51,-5.33,51.89,97.45,250.13
1778214060.604981,352224,-4.85,8.73,11.41,-250.14,173.25,-100.21
1778214060.7848542,352426,-2.17,8.27,2.86,-34.92,-9.04,-2.99
1778214061.024941,352628,-2.03,7.11,4.42,-24.65,1.97,-14.34
1778214061.2051904,352830,-1.97,7.11,4.28,25.58,33.08,-37.91
1778214061.3851888,353032,-10.56,17.87,5.74,-250.14,59.73,-250.14
1778214061.6251783,353234,-6.81,10.49,-2.06,-96.60,-137.85,232.86
1778214061.8066306,353436,-19.62,13.13,5.48,229.71,11.60,250.13
1778214062.0455909,353638,-5.52,10.34,9.73,-63.84,-25.69,-50.63
1778214062.2259622,353840,-1.78,7.06,4.28,-3.23,5.21,-11.68
1778214062.4046776,354042,-2.47,7.34,4.66,3.53,5.52,-25.84
1778214062.6458855,354244,-6.96,13.53,2.89,-66.91,199.85,-250.14
1778214062.8246539,354446,-0.13,3.21,1.36,38.84,-119.85,146.02
1778214063.005145,354648,-16.20,10.71,9.00,215.18,-79.32,250.13
1778214063.2463412,354850,1.43,2.89,6.31,-229.63,41.98,-68.73
1778214063.424406,355052,-1.59,7.26,5.44,-10.05,0.16,-11.40
1778214063.6053586,355254,-1.83,5.98,6.00,24.89,5.38,-37.66
1778214063.8464859,355456,-3.56,7.27,5.21,73.40,138.66,-169.48
1778214064.1439319,355658,-0.24,8.52,2.57,13.31,-164.07,169.98
1778214064.2644815,355860,-8.52,10.78,4.00,117.24,-235.39,238.79
1778214064.4448113,356062,-4.24,8.02,2.80,-250.14,131.53,-192.92
1778214064.625219,356264,-1.85,7.91,2.57,3.15,-11.85,-7.94
1778214064.8674715,356466,-2.44,7.00,6.15,-7.42,-9.27,-20.50
1778214065.105557,356668,-1.25,7.77,4.50,58.81,139.57,-143.70
1778214065.2265308,356870,0.96,4.55,-0.71,-112.40,0.90,77.10
1778214065.465036,357072,-8.47,11.01,4.50,123.73,-125.26,250.13
1778214065.6448104,357274,-1.30,9.48,-19.62,-250.14,250.13,-144.80
1778214065.885263,357476,-1.77,7.95,2.79,15.30,-6.21,-8.92
1778214066.064608,357678,-2.08,6.86,5.34,-6.90,2.78,-16.83
1778214066.244765,357880,-1.35,6.45,6.37,-25.34,165.56,-218.52
1778214066.4848385,358082,2.65,2.26,-1.64,-0.15,-101.31,106.95
1778214066.665188,358284,-9.94,16.12,5.65,228.95,-100.71,250.13
1778214066.8445683,358486,1.98,-19.62,19.62,-250.14,153.66,-234.85
1778214067.084782,358688,-2.30,8.15,3.47,33.37,-0.83,-21.07
1778214067.2646499,358890,-2.15,6.95,5.21,33.94,12.05,-28.03
1778214067.4462092,359092,-4.16,9.41,3.31,6.11,206.45,-250.14
1778214067.686649,359294,-0.01,3.37,0.29,-20.08,-151.29,147.69
1778214067.866791,359496,-15.35,15.51,3.50,158.77,-117.44,250.13
1778214068.1046464,359698,-6.59,5.10,18.75,-199.08,4.66,-84.84
1778214068.2848084,359900,-1.59,8.15,4.94,-21.06,-6.55,-16.79
1778214068.464958,360102,-1.87,7.02,6.21,-12.55,-7.65,-19.02
1778214068.7066042,360304,-4.56,11.06,2.78,-74.62,197.56,-250.14
1778214068.9449792,360506,-0.45,1.36,1.03,3.32,-132.85,166.95
1778214069.0652938,360708,-16.16,15.12,5.39,197.49,-37.67,250.13
1778214069.3061645,360910,-1.83,5.83,5.08,-233.39,24.84,-68.21
1778214069.4839644,361112,-2.09,7.85,3.67,-65.21,8.98,-3.63
1778214069.6646633,361314,-2.02,6.13,5.95,5.14,3.24,-22.93
1778214069.9065094,361516,-4.85,10.36,4.70,-19.17,207.38,-250.14
1778214070.0912557,361718,1.67,2.57,0.80,54.40,-106.83,102.37
1778214070.3245342,361920,-14.25,15.14,7.03,188.10,-89.27,250.13
1778214070.5047877,362122,-5.76,6.31,10.80,-199.31,-7.91,-77.15
1778214070.685334,362324,-1.89,7.68,4.54,-74.99,11.92,-7.86
1778214070.9251962,362526,-2.22,6.99,4.95,2.85,0.53,-23.27
1778214071.1047277,362728,-6.84,11.75,6.36,-22.63,223.34,-250.14
1778214071.285179,362930,0.89,1.17,-0.39,30.74,-120.58,174.70
1778214071.5249076,363132,-19.62,15.33,2.07,161.09,-64.43,250.13
1778214071.7049363,363334,-0.77,1.27,9.41,-161.74,-91.50,-71.56
1778214071.9447331,363536,-2.11,8.69,1.48,22.24,-2.45,-16.47
1778214072.1295404,363738,-2.20,7.46,4.79,-5.13,-2.22,-6.09
1778214072.313706,363940,-1.29,7.90,4.83,59.36,55.26,-65.82
1778214072.605571,364142,-4.65,19.62,3.28,-224.04,84.02,147.59
1778214072.72512,364344,-9.89,12.54,-11.40,-63.46,-9.54,250.13
1778214072.9048483,364546,-17.69,7.47,-0.94,223.11,158.44,194.44
1778214073.145835,364748,-1.09,11.83,0.48,28.24,9.73,-35.20
1778214073.3268685,364950,-1.88,7.65,4.68,-15.93,14.59,-7.60
1778214073.5047853,365152,-2.34,7.19,5.00,5.88,10.95,-20.24
1778214073.7448468,365354,-3.83,8.87,2.73,-42.31,115.22,-145.79
1778214073.9272285,365556,-3.23,7.35,2.93,-118.69,94.23,200.86
1778214074.1648366,365758,-10.34,12.68,-0.67,85.13,-102.55,250.13
1778214074.3453875,365960,3.56,8.88,1.13,-250.14,112.81,-158.19
1778214074.5253909,366162,-3.13,7.03,2.03,36.69,-0.49,-9.82
1778214074.7652233,366364,-2.47,6.99,5.35,-17.04,2.72,-17.24
1778214074.9453955,366566,-5.33,10.03,3.98,4.39,108.34,-95.93
1778214075.1848507,366768,-3.53,19.62,-0.51,5.41,10.82,-98.92
1778214075.3675542,366970,-6.98,9.43,4.93,146.63,-149.02,250.13
1778214075.5454865,367172,10.52,16.26,18.83,-219.89,19.88,-112.63
1778214075.7246542,367374,-1.93,7.78,4.42,45.35,-3.60,-16.26
1778214075.964892,367576,-2.31,7.04,5.54,-13.53,-2.73,-19.60
1778214076.1445327,367778,-2.79,8.16,3.36,21.95,122.65,-127.65
1778214076.385073,367980,-2.67,18.85,7.24,41.44,-82.79,63.57
1778214076.5647936,368182,-9.08,11.90,5.13,92.34,-133.55,250.13
1778214076.744694,368384,11.16,19.62,-16.45,-250.14,73.23,-92.44
1778214076.9854305,368586,-2.08,8.30,2.47,-12.82,0.34,-14.48
1778214077.165792,368788,-1.78,6.46,4.52,4.89,3.35,-20.97
1778214077.3475804,368990,-2.85,7.79,2.48,-11.41,138.09,-159.29
1778214077.5851226,369192,1.14,5.47,1.25,-67.51,-81.95,94.70
1778214077.7654464,369394,-8.86,13.27,8.01,211.74,-207.74,250.13
1778214078.0056863,369596,-5.90,-12.46,19.62,-250.14,51.17,-145.54
1778214078.1851385,369798,-1.75,7.58,4.37,-32.89,-0.01,-3.22
1778214078.3653352,370000,-1.85,6.96,5.25,-42.25,2.45,-10.18
1778214078.6048355,370202,2.52,5.13,5.33,-21.16,195.49,-202.42
1778214078.784583,370404,1.26,0.09,4.10,-12.31,-55.88,62.15
1778214078.964853,370606,-9.65,17.14,5.24,171.61,-114.69,250.13
1778214079.2046974,370808,-7.41,0.94,19.62,-250.14,140.24,-146.60
1778214079.3864095,371010,-1.23,7.91,2.39,30.76,-18.63,-16.36
1778214079.5641918,371212,-2.35,7.44,3.76,-58.95,1.47,-13.78
1778214079.8729475,371414,-0.14,6.22,5.02,21.01,123.92,-134.75
1778214079.9846413,371616,0.48,6.41,-1.55,-104.47,-69.20,112.61
1778214080.2255216,371818,-9.18,10.35,8.16,129.13,-139.89,250.13
1778214080.4078252,372020,12.13,19.62,-19.62,-250.14,103.63,-105.80
1778214080.5852196,372222,-0.92,6.79,7.70,0.34,-1.65,-8.83
1778214080.8250642,372424,-1.94,7.36,5.07,-6.36,0.38,-15.21
1778214081.0043197,372626,-1.37,7.47,0.12,79.34,59.80,-104.21
1778214081.1857824,372828,-10.70,19.62,11.00,125.42,-47.54,-83.98
1778214081.4245453,373030,-6.96,8.54,4.91,96.70,-179.44,250.13
1778214081.60431,373232,-14.39,0.19,0.96,-197.66,-39.56,-181.37
1778214081.7851384,373434,-0.96,6.68,6.44,-12.43,-2.56,-1.54
1778214082.0244732,373636,-1.91,7.04,5.66,-3.37,-3.39,-12.63
1778214082.2051566,373838,-1.81,6.73,4.50,49.10,61.82,-62.82
1778214082.4446597,374040,-11.23,17.78,12.10,-41.02,16.38,-124.17
1778214082.6249623,374242,-4.52,7.87,6.10,83.07,-140.74,250.13
1778214082.810289,374444,-19.62,-1.65,5.27,250.13,127.00,44.90
1778214083.047852,374646,-2.33,7.82,4.43,2.29,-17.73,-39.24
1778214083.2252014,374848,-2.30,7.78,4.19,-19.59,-0.72,-12.84
1778214083.4048648,375050,-1.79,6.86,5.11,31.90,13.54,-30.46
1778214083.705455,375252,-11.50,16.77,2.23,-173.03,145.05,-250.14
1778214083.8252032,375454,-5.80,12.90,-3.55,-76.24,-125.53,250.13
1778214084.0653389,375656,-19.62,2.21,0.78,236.81,47.56,250.13
1778214084.2439826,375858,-3.58,7.07,6.95,-38.58,6.99,-21.89
1778214084.4247267,376060,-1.84,7.48,4.35,-16.27,-9.92,-8.19
1778214084.665326,376262,-1.87,6.88,4.99,-15.43,1.81,-9.30
1778214084.8453217,376464,-0.90,8.02,3.70,-0.44,122.85,-95.39
1778214085.0246198,376666,-4.49,4.14,1.12,-182.50,188.03,192.18
1778214085.26506,376868,-9.14,10.60,-11.06,-20.41,-59.74,250.13
1778214085.444801,377070,-19.62,0.77,8.35,42.99,174.08,106.06
1778214085.6310537,377272,-0.47,7.27,5.87,-63.80,-28.19,-12.15
1778214085.8648145,377474,-1.71,7.36,5.01,-26.13,2.05,-9.66
1778214086.0445447,377676,-2.36,7.34,4.96,15.95,5.58,-27.01
1778214086.3453596,377878,-9.42,16.92,7.94,-155.77,137.16,-250.14
1778214086.4656215,378080,-2.93,7.47,1.95,-33.15,-48.09,158.40
1778214086.644465,378282,-15.66,12.15,1.98,240.83,-36.47,250.13
1778214086.884842,378484,-12.23,9.22,12.61,-250.14,6.95,-114.74
1778214087.064738,378686,-2.11,7.81,2.89,-19.08,9.79,-5.46
1778214087.2451448,378888,-2.06,6.53,5.07,7.39,11.35,-17.63
1778214087.484661,379090,-2.14,7.70,2.98,40.49,115.77,-165.89
1778214087.6669369,379292,2.85,4.50,1.44,101.37,-127.24,166.80
1778214087.844568,379494,-6.39,8.46,9.86,114.02,-250.14,204.34
1778214088.0874617,379696,8.30,18.20,-19.16,-250.14,-71.16,-238.48
1778214088.2643845,379898,-1.88,7.73,3.91,-5.85,-3.30,-8.66
1778214088.504338,380100,-1.97,6.67,5.24,-20.40,-5.20,-21.44
1778214088.6853878,380302,-0.46,7.66,6.20,-16.04,179.29,-181.28
1778214088.8663414,380504,2.30,1.90,-0.66,-31.16,-82.78,105.91
1778214089.104507,380706,-11.07,15.13,4.14,137.86,-132.79,250.13
1778214089.284642,380908,-3.78,4.47,6.14,-250.14,175.15,-250.14
1778214089.4644258,381110,-1.71,7.39,3.80,10.50,2.79,-24.17
1778214089.764924,381312,-2.50,8.01,3.54,1.73,-4.07,-35.38
1778214089.8847635,381514,-1.33,6.40,5.05,-1.34,187.66,-243.05
1778214090.1254327,381716,1.03,2.35,0.78,26.71,-111.46,150.24
1778214090.3044927,381918,-16.77,16.52,4.72,148.75,-148.10,250.13
1778214090.4846647,382120,-14.59,17.08,17.55,-250.14,-50.92,-131.66
1778214090.7255912,382322,-1.87,7.88,4.66,-24.50,-2.86,-11.10
1778214090.904982,382524,-2.75,6.44,4.29,4.89,-1.60,-26.32
1778214091.0838878,382726,-5.58,13.07,4.46,-46.38,223.49,-250.14
1778214091.3848894,382928,0.60,3.25,-0.27,59.47,-137.73,117.47
1778214091.5049026,383130,-19.62,13.95,10.90,203.11,-53.52,250.13
1778214091.6846583,383332,-4.44,6.08,5.58,-119.31,0.41,-51.31
1778214091.9851975,383534,-1.54,6.62,6.78,-66.11,12.74,-9.91
1778214092.104912,383736,-2.07,6.46,5.69,41.34,7.73,-33.22
1778214092.3452845,383938,-19.62,18.97,13.08,-122.41,168.94,-250.14
1778214092.5242898,384140,-1.38,9.55,2.37,88.90,-115.18,215.91
1778214092.7043543,384342,-19.62,-7.51,7.95,156.67,-132.98,244.15
1778214092.9444492,384544,-3.54,11.33,2.28,25.02,7.86,-39.50
1778214093.126708,384746,-1.81,7.38,4.45,-25.49,-4.81,-14.97
1778214093.3048935,384948,-1.23,7.31,4.37,55.88,28.07,-56.74
1778214093.5441558,385150,-2.34,15.60,6.99,-71.15,168.88,-250.14
1778214093.7246666,385352,-5.08,8.93,4.46,110.98,-145.66,250.13
1778214093.904179,385554,-19.62,-3.44,0.82,47.69,93.99,11.63
1778214094.1451688,385756,-0.53,6.37,6.67,-40.47,-32.41,-9.29
1778214094.3265529,385958,-2.25,7.23,5.21,-41.09,-0.18,-12.37
1778214094.56578,386160,-2.39,6.85,4.98,72.54,54.27,-71.58
1778214094.8687203,386362,-16.57,19.62,19.62,26.79,-16.65,-170.40
1778214094.9842527,386564,-6.46,8.46,5.24,98.74,-137.45,250.13
1778214095.1644382,386766,-19.62,-8.14,0.74,-121.96,82.60,-67.17
1778214095.3463717,386968,-2.05,8.34,4.95,-29.01,-32.82,-13.34
1778214095.5857298,387170,-1.73,7.14,5.97,-18.56,-2.66,-12.77
1778214095.7678366,387372,-1.84,6.29,6.56,10.63,28.86,-35.08
1778214095.9487886,387574,-3.33,13.20,6.21,-250.14,153.06,-250.14
1778214096.184891,387776,-9.94,11.41,-3.62,-132.92,-141.68,250.13
1778214096.4247398,387978,-18.90,9.47,0.01,250.13,171.60,232.73
1778214096.6054888,388180,-7.08,-3.34,-4.58,-109.59,-49.61,-87.15
1778214096.7852588,388382,-2.00,7.62,4.10,-16.27,5.08,-7.80
1778214096.966827,388584,-2.29,7.18,4.35,-48.10,-4.39,-3.76
1778214097.2045093,388786,-2.54,7.68,4.66,16.91,30.61,-34.08
1778214097.3841803,388988,-4.41,17.16,4.19,-250.14,66.21,-190.30
1778214097.5643046,389190,-7.12,9.60,-4.87,-78.38,-155.83,238.69
1778214097.7438502,389392,-19.44,12.06,8.22,250.13,36.18,249.60
1778214097.998261,389594,-3.95,12.14,10.50,-43.26,-67.35,-61.63
1778214098.1647286,389796,-2.13,7.56,4.45,-4.63,-4.79,-15.92
1778214098.4043324,389998,-1.26,6.52,6.08,0.82,6.86,-26.78
1778214098.5854156,390200,-7.79,15.57,4.12,-67.53,224.79,-250.14
1778214098.7638915,390402,1.46,5.82,-0.11,102.01,-123.92,104.12
1778214099.0062733,390604,-19.62,15.38,8.77,157.27,7.50,250.13
1778214099.1843705,390806,-3.65,3.77,9.94,-43.43,-25.27,-35.14
1778214099.3643434,391008,-2.08,7.38,4.63,-53.65,8.60,-9.15
1778214099.604463,391210,-2.02,7.05,4.82,8.29,7.30,-14.78
1778214099.7863526,391412,-3.74,10.05,1.73,-39.23,195.08,-250.14
1778214100.0241144,391614,0.39,2.12,2.44,37.86,-173.23,135.56
1778214100.2052276,391816,-16.50,10.12,11.77,250.13,-59.76,250.13
1778214100.3841846,392018,-4.08,5.55,10.10,-84.80,-6.70,-38.67
1778214100.624414,392220,-2.16,7.37,5.49,-20.83,4.53,-14.47
1778214100.8643534,392422,-2.17,6.77,4.81,41.30,6.58,-50.28
1778214100.9845338,392624,-16.16,19.62,10.44,-55.50,183.07,-250.14
1778214101.224191,392826,-2.66,9.94,1.20,48.42,-145.97,239.69
1778214101.4044318,393028,-19.62,-16.45,6.97,250.13,-77.18,146.82
1778214101.5842261,393230,-3.31,5.96,1.50,-8.61,-22.31,-33.16
1778214101.8244803,393432,-2.15,7.55,4.16,-19.16,-6.13,-20.46
1778214102.0045104,393634,-1.14,6.89,1.34,23.05,87.08,-104.99
1778214102.2453942,393836,-0.50,19.62,8.79,37.33,-56.98,20.89
1778214102.4281306,394038,-7.03,11.36,6.64,191.01,-198.27,250.13
1778214102.6692135,394240,-2.20,10.73,-18.53,-250.14,43.28,-245.12
1778214102.9659383,394442,-1.90,7.85,4.73,41.39,-2.47,-21.37
1778214103.0247433,394644,-1.80,6.96,4.89,-62.69,4.64,-5.50
1778214103.2040625,394846,-2.10,9.81,1.10,-12.01,208.80,-250.14
1778214103.444176,395048,1.31,-0.18,0.27,52.88,-90.37,173.71
1778214103.626858,395250,-19.62,16.00,11.09,159.73,-106.88,250.13
1778214103.8042653,395452,-3.34,11.81,5.74,-110.36,1.05,-65.93
1778214104.044341,395654,-2.17,6.03,5.05,-135.43,9.59,-17.65
1778214104.2840688,395856,-2.58,6.16,5.39,46.37,4.14,-40.66
1778214104.4647872,396058,-19.62,19.62,12.37,-44.02,226.31,-250.14
1778214104.6431556,396260,-1.46,9.50,4.85,46.42,-144.69,230.84
1778214104.8247535,396462,-19.62,-10.87,9.17,215.46,-65.36,211.08
1778214105.0675468,396664,-3.31,8.34,4.59,56.82,-31.66,-36.69
1778214105.2452912,396866,-1.94,7.46,4.38,-16.05,-4.20,-12.24
1778214105.4241893,397068,-1.89,6.82,5.34,43.68,36.72,-47.04
1778214105.6642196,397270,-9.65,19.62,6.46,-195.83,164.89,-250.14
1778214105.8479135,397472,-3.90,10.28,-0.79,33.40,-137.10,250.13
1778214106.0241315,397674,-19.62,-8.91,12.33,250.13,7.51,152.27
1778214106.2644806,397876,-1.58,6.57,4.69,-71.97,-7.47,4.69
1778214106.4454563,398078,-1.96,7.19,4.75,-30.18,7.93,-3.50
1778214106.6861906,398280,-2.06,6.93,5.40,-15.65,2.71,-21.12
1778214106.8657465,398482,-10.80,14.17,7.67,-73.71,134.20,-250.14
1778214107.0442684,398684,-1.32,4.41,11.29,133.58,-178.30,163.30
1778214107.2839773,398886,-19.62,-17.28,11.17,178.02,-137.28,71.15
1778214107.4646387,399088,-2.09,6.82,8.92,-19.28,-48.47,-27.74
1778214107.6452284,399290,-1.73,7.22,5.38,-16.54,-1.60,-0.63
1778214107.884932,399492,-1.75,6.54,5.02,-11.31,0.41,-14.69
1778214108.0650768,399694,-9.28,19.62,9.54,42.04,225.49,-250.14
1778214108.3044498,399896,0.24,5.84,8.28,134.64,-46.64,153.19
1778214108.4865375,400098,-11.02,5.06,7.49,89.92,-184.36,110.66
1778214108.6638057,400300,-9.50,-2.60,19.62,-147.70,-19.53,-36.43
1778214108.9047515,400502,-2.25,7.44,4.89,14.95,11.08,-6.18
1778214109.0838845,400704,-2.57,7.25,4.35,-10.51,8.28,-16.22
1778214109.2643948,400906,-2.76,7.42,4.50,-6.31,-6.49,10.05
1778214109.5047853,401108,-2.20,7.62,3.97,-2.82,0.27,7.76
1778214109.6841886,401310,-3.02,9.18,2.38,50.06,43.63,2.77
1778214109.864891,401512,-6.17,6.93,4.75,0.08,-9.93,-63.31
1778214110.104408,401714,-3.65,7.35,5.09,55.17,-149.56,-133.15
1778214110.284448,401916,-4.61,7.86,5.16,136.43,-192.22,-70.81
1778214110.5840006,402118,-7.20,4.76,-1.67,53.55,-51.90,-82.69
1778214110.703894,402320,-2.88,6.46,5.78,-5.09,5.20,3.27
1778214110.884118,402522,-2.35,7.06,4.64,-30.69,-3.10,-4.24
1778214111.1240337,402724,-2.27,6.89,5.30,1.92,1.20,-5.14
1778214111.3045294,402926,-2.34,6.59,5.52,-0.22,4.14,-4.05
1778214111.4837573,403128,-2.88,6.88,3.88,32.43,88.38,-79.10
1778214111.723957,403330,-4.57,12.51,9.95,30.14,96.31,-170.32
1778214111.909487,403532,-5.95,8.70,1.50,-28.09,-116.11,225.39
1778214112.0884542,403734,-14.57,-4.01,-1.90,97.50,129.23,155.71
1778214112.3242404,403936,-3.01,7.61,4.67,53.81,-45.03,-11.26
1778214112.5051317,404138,-2.53,7.24,4.55,-23.98,-0.56,-3.37
1778214112.7446883,404340,-2.05,7.08,4.64,-15.00,-1.34,9.73
1778214112.9281123,404542,-2.07,6.81,5.78,-5.82,0.63,3.88
1778214113.104005,404744,-15.38,12.06,-11.09,-250.14,250.13,250.13
1778214113.3443565,404946,-0.52,9.93,0.02,-20.52,190.31,130.91
1778214113.5288012,405148,-11.93,4.54,8.46,-26.98,15.63,125.20
1778214113.706067,405350,-4.32,8.13,14.51,-42.37,38.05,-5.76
1778214113.9441147,405552,-2.17,7.51,5.03,0.15,3.66,-6.03
1778214114.124489,405754,-2.01,6.99,5.23,-9.25,-1.65,-6.54
1778214114.3643377,405956,-2.23,7.45,5.25,-21.12,-8.72,-12.37
1778214114.5448704,406158,-5.57,10.59,3.90,46.50,107.53,-224.85
1778214114.7238286,406360,-1.65,5.44,3.23,30.27,-22.80,114.87
1778214114.9639022,406562,-9.82,5.67,5.48,26.39,-93.89,105.60
1778214115.1439707,406764,-1.63,7.41,4.10,-25.27,-31.91,31.94
1778214115.3263795,406966,-2.09,7.51,4.93,-4.53,-2.59,3.98
1778214115.5641313,407168,-1.88,7.53,4.58,-0.44,2.31,2.56
1778214115.7454565,407370,-1.96,7.56,4.73,-9.70,0.01,1.00
1778214115.9261353,407572,-1.91,7.46,4.86,1.71,0.14,0.24
1778214116.166163,407774,-1.88,7.69,4.71,6.45,5.61,0.91
1778214116.3442361,407976,-10.66,4.64,4.01,81.04,-44.38,-88.40
1778214116.5848475,408178,-2.82,6.60,5.67,26.53,-120.98,-105.79
1778214116.7650683,408380,-4.17,7.36,4.54,80.89,-224.06,-85.33
1778214116.9443457,408582,-8.84,19.62,15.76,-250.14,-69.05,-10.51
1778214117.183968,408784,-2.26,7.26,4.71,12.98,9.50,2.65
1778214117.3671212,408986,-2.19,7.14,5.15,-3.79,-0.98,-6.09
1778214117.5438836,409188,-2.26,7.31,5.10,-2.16,0.13,-2.29
1778214117.7840855,409390,-2.22,6.70,5.48,0.41,7.73,-11.39
1778214117.9643111,409592,-7.91,8.77,5.26,134.66,192.75,-212.95
1778214118.26688,409794,-2.14,11.03,0.31,-65.38,-133.42,177.05
1778214118.3840346,409996,-0.19,5.35,-1.61,-45.20,57.60,50.50
1778214118.5654395,410198,-0.90,5.51,6.05,-0.18,3.32,2.19
1778214118.8041384,410400,-2.08,7.69,4.17,20.90,0.00,1.21
1778214118.9844847,410602,-1.98,7.14,5.17,-1.22,0.09,1.76
1778214119.1649315,410804,-2.02,7.06,5.14,6.91,0.62,1.27
1778214119.403963,411006,-2.02,7.42,4.77,1.80,1.31,1.98
1778214119.6484575,411208,-1.97,7.25,4.97,-5.88,0.56,-0.60
1778214119.7641573,411410,-2.03,7.10,5.17,-5.31,0.60,0.41
1778214120.003988,411612,-1.99,7.05,5.28,-2.30,1.12,0.83
1778214120.1843674,411814,-2.06,7.22,5.11,4.64,2.00,0.56
1778214120.4254816,412016,-2.28,7.27,5.25,1.98,0.78,1.05
1778214120.6049418,412218,-1.73,7.01,4.93,2.60,0.35,2.41
1778214120.785635,412420,-2.24,7.38,4.85,-26.31,-1.61,3.04
1778214121.0263882,412622,-1.80,7.20,4.93,-6.89,-0.38,-4.02
1778214121.2054074,412824,-2.15,6.90,5.17,11.53,6.50,-20.77
1778214121.3846633,413026,-9.20,14.84,8.24,-97.98,156.07,-250.14
1778214121.6241543,413228,-1.09,10.41,1.47,-28.61,-46.08,128.41
1778214121.805388,413430,-16.20,12.19,2.97,170.12,-29.56,241.81
1778214121.9835446,413632,5.94,-2.29,3.41,-24.25,-24.08,-19.63
1778214122.22429,413834,-2.00,6.94,5.46,8.87,7.28,-9.04
1778214122.4045467,414036,-2.27,6.43,5.50,6.69,2.62,-26.34
1778214122.6462874,414238,-6.41,13.46,4.53,-95.09,198.73,-250.14
1778214122.824785,414440,0.37,6.73,0.93,56.60,4.56,198.00
1778214123.0041995,414642,-13.61,10.93,6.83,13.15,-159.97,212.04
1778214123.2447448,414844,-5.64,-1.16,19.62,-192.05,-40.34,-69.72
1778214123.424445,415046,-1.75,7.44,4.79,-1.13,-1.14,-8.89
1778214123.6038983,415248,-1.99,6.78,5.46,-2.61,4.88,-14.99
1778214123.8442006,415450,-3.43,11.25,3.67,-59.27,232.98,-250.14
1778214124.0243347,415652,1.97,4.50,0.33,38.85,-80.00,109.89
1778214124.2638147,415854,-16.03,17.93,1.16,171.74,-137.69,250.13
1778214124.4452522,416056,-3.44,3.97,13.05,-216.89,-48.24,-90.33
1778214124.6269348,416258,-1.59,8.67,3.96,-34.61,-15.62,-19.79
1778214124.8645427,416460,-2.60,6.67,4.13,-11.03,-7.16,-34.75
1778214125.0472503,416662,-3.45,9.32,1.84,-45.41,148.05,-168.34
1778214125.2255173,416864,1.99,3.54,-0.77,-37.14,1.75,106.54
1778214125.4642482,417066,-7.92,12.82,5.65,96.15,-191.15,250.13
1778214125.646282,417268,-7.02,-3.21,19.62,-250.14,83.63,-97.60
1778214125.8247437,417470,-1.73,8.29,3.11,-41.60,-1.42,-7.46
1778214126.0640519,417672,-2.02,6.33,5.80,15.48,2.23,-27.96
1778214126.3051062,417874,-6.41,13.67,8.97,-64.29,203.40,-250.14
1778214126.4844024,418076,1.47,6.16,0.84,77.13,-94.76,104.34
1778214126.6648116,418278,-19.62,15.00,8.60,171.02,-11.69,250.13
1778214126.8449843,418480,-1.49,2.54,10.68,-120.21,1.98,-50.89
1778214127.0851228,418682,-1.69,7.38,4.23,-11.92,-2.88,-22.75
1778214127.2640858,418884,-2.44,4.53,6.49,7.93,23.42,-37.01
1778214127.4443815,419086,-18.48,19.62,15.93,-92.52,174.24,-250.14
1778214127.6842582,419288,-0.05,9.61,1.49,103.79,-126.36,164.37
1778214127.8643231,419490,-19.62,6.78,11.68,159.48,-33.47,250.13
1778214128.046145,419692,-4.52,9.96,0.91,29.08,-39.72,-16.97
1778214128.284234,419894,-1.78,7.40,5.16,-18.04,-2.00,-12.74
1778214128.4638643,420096,-2.23,7.02,4.94,49.27,18.39,-35.73
1778214128.7043102,420298,-19.55,19.50,8.92,-124.96,173.25,-250.14
1778214128.8845391,420500,-1.56,9.19,1.59,77.12,-140.11,211.58
1778214129.0694711,420702,-19.62,-4.97,9.61,184.04,-91.04,198.34
1778214129.36403,420904,-5.63,9.66,3.06,-26.44,-30.09,-3.18
1778214129.4847288,421106,-2.13,7.29,5.34,-4.98,-2.69,-19.39
1778214129.6642096,421308,-2.34,7.03,5.37,25.39,38.21,-41.21
1778214130.02477,421510,-10.47,12.93,7.12,-36.19,163.30,-250.14
1778214130.0858967,421712,-3.32,6.80,7.74,106.48,-154.92,225.66
1778214130.3241343,421914,-19.62,-19.62,19.62,193.45,-25.20,118.02
1778214130.5048628,422116,-0.73,5.82,8.68,-52.47,7.08,1.59
1778214130.6857243,422318,-1.92,7.40,4.04,-32.94,0.44,-11.70
1778214130.9244783,422520,-1.80,7.03,5.12,-1.53,6.45,-23.37
1778214131.104084,422722,-15.79,16.23,7.99,-117.14,187.19,-250.14
1778214131.2840824,422924,-2.68,10.43,-2.92,4.80,-155.41,200.35
1778214131.524182,423126,-19.62,1.76,-1.63,159.63,85.69,250.13
1778214131.7072165,423328,-3.69,13.32,-5.56,-56.03,-26.44,-32.18
1778214131.884827,423530,-1.65,8.20,4.11,-21.40,2.16,-5.24
1778214132.1239753,423732,-2.02,6.73,5.61,-53.45,9.16,-5.23
1778214132.3044832,423934,-1.08,7.34,6.08,88.98,34.57,-70.47
1778214132.5442252,424136,-10.33,14.96,-0.79,-250.14,243.25,250.13
1778214132.7246869,424338,-8.98,11.13,-8.99,-82.44,-121.85,250.13
1778214132.904364,424540,-19.62,1.89,4.66,250.13,94.29,241.17
1778214133.1444612,424742,-3.74,9.93,2.69,27.40,6.37,-30.27
1778214133.3242772,424944,-1.65,7.57,5.26,-7.79,-0.44,-13.76
1778214133.50369,425146,-2.04,6.60,6.09,18.23,7.39,-27.63
1778214133.7439778,425348,-12.22,19.56,7.67,-150.22,204.44,-250.14
1778214133.92373,425550,-1.01,5.78,-0.39,9.88,-130.17,146.06
1778214134.1040754,425752,-19.62,15.24,5.75,194.01,-24.06,250.13
1778214134.34757,425954,-6.83,4.22,12.47,-196.74,27.06,-50.88
1778214134.5248277,426156,-1.64,7.29,5.57,-31.23,6.82,-11.60
1778214134.7642136,426358,-1.97,6.79,5.08,1.49,0.47,-21.21
1778214134.945683,426560,-7.43,15.52,6.30,-101.06,207.57,-250.14
1778214135.1251087,426762,0.63,6.68,-0.30,79.63,-142.18,97.77
1778214135.3639412,426964,-19.37,14.06,10.38,155.66,-11.13,250.13
1778214135.5453675,427166,-4.00,8.94,6.88,-118.29,11.07,-56.65
1778214135.7245662,427368,-1.93,7.68,4.44,-34.23,9.79,-10.85
1778214135.9661632,427570,-2.40,7.54,3.64,-13.77,0.94,-16.03
1778214136.1442263,427772,-6.11,13.92,3.68,-40.93,224.13,-250.14
1778214136.3841467,427974,1.58,6.25,-1.32,18.40,-127.72,91.77
1778214136.5649178,428176,-19.62,16.26,6.30,200.95,-93.71,250.13
1778214136.7447011,428378,-1.41,9.75,-1.33,-180.44,35.32,-47.40
1778214136.9840937,428580,-1.69,7.63,4.07,-80.40,-0.03,-7.20
1778214137.1655319,428782,-1.14,6.36,6.25,2.89,5.73,-27.93
1778214137.3441103,428984,-8.95,16.74,4.05,-61.25,250.13,-250.14
1778214137.5836143,429186,-0.51,3.94,2.74,70.60,-188.14,132.10
1778214137.7665832,429388,-19.62,15.87,8.09,161.82,7.77,250.13
1778214137.9449742,429590,-2.51,9.16,7.83,-2.47,-82.40,-41.54
1778214138.2445416,429792,-1.43,7.02,5.52,-51.41,7.85,-3.93
1778214138.3656733,429994,-2.13,6.96,5.91,5.87,3.80,-16.45
1778214138.605345,430196,-4.52,13.60,1.02,-45.14,200.43,-250.14
1778214138.7842066,430398,0.53,0.90,2.36,-35.24,-128.50,118.89
1778214138.9650204,430600,-13.73,15.11,7.31,176.96,-71.96,250.13
1778214139.2047129,430802,-14.46,0.68,19.62,-197.82,-64.41,-102.11
1778214139.4452057,431004,-1.59,7.15,4.85,-29.82,1.85,-6.63
1778214139.5646582,431206,-2.61,6.27,6.52,-1.36,-7.61,-29.55
1778214139.8060405,431408,-4.19,12.79,1.54,-107.44,217.82,-250.14
1778214139.9841485,431610,-0.11,10.49,2.28,104.41,53.56,230.40
1778214140.1643097,431812,-19.62,17.01,10.27,-55.52,-171.47,241.76
1778214140.4032035,432014,-4.79,8.40,9.58,-54.92,-8.69,-16.42
1778214140.5854473,432216,-1.67,7.21,5.76,-7.68,1.03,-11.89
1778214140.823061,432418,-2.48,6.86,5.23,7.60,-1.97,-36.21
1778214141.0062976,432620,-3.93,12.17,0.31,-9.47,250.13,-250.14
1778214141.1843677,432822,1.28,4.56,0.97,61.60,-158.85,101.54
1778214141.4245415,433024,-19.62,17.01,5.60,88.41,-50.50,250.13
1778214141.6073055,433226,-5.93,9.08,16.63,-40.99,-59.90,-45.63
1778214141.7858558,433428,-2.01,6.93,5.71,-59.15,9.05,-10.53
1778214142.02441,433630,-2.18,6.72,5.37,-2.27,13.15,-27.01
1778214142.2054894,433832,-15.23,19.62,14.24,-160.39,204.13,-250.14
1778214142.4441888,434034,-0.26,4.92,-1.10,43.08,-120.89,203.70
1778214142.6247516,434236,-19.62,13.69,7.33,139.67,-106.82,250.13
1778214142.805679,434438,-5.14,6.28,4.65,-27.50,-57.93,-26.21
1778214143.0436742,434640,-1.90,7.11,5.27,-32.06,2.69,-9.09
1778214143.2239282,434842,-2.25,6.79,5.40,3.14,1.93,-19.27
1778214143.4043794,435044,-3.77,13.84,6.72,-44.08,220.82,-250.14
1778214143.6439257,435246,-2.10,5.90,-0.38,-123.37,-137.38,200.18
1778214143.8255725,435448,-18.40,17.01,-3.00,62.79,25.06,250.13
1778214144.004964,435650,-17.03,19.62,19.44,-250.14,250.13,-167.34
1778214144.243913,435852,-1.68,7.31,4.14,-31.73,5.11,-2.30
1778214144.4242396,436054,-1.80,7.56,4.40,-14.69,-9.47,-9.81
1778214144.6637146,436256,-1.09,6.32,6.60,16.44,24.31,-16.37
1778214144.8445191,436458,-6.48,16.65,5.18,-250.14,84.45,-201.88
1778214145.0242066,436660,-8.34,12.18,-4.08,-147.52,-156.60,240.11
1778214145.2669168,436862,-19.62,15.64,4.78,250.13,114.32,250.13
1778214145.4437401,437064,-5.93,5.88,10.12,-50.62,-46.70,-18.02
1778214145.623724,437266,-1.61,6.95,5.22,-13.12,5.53,-12.76
1778214145.8681798,437468,-2.21,6.90,5.45,8.44,5.94,-18.84
1778214146.0458496,437670,-6.16,13.17,4.93,-106.11,143.28,-250.14
1778214146.2239416,437872,-1.79,3.07,4.11,-7.89,-12.55,172.53
1778214146.463721,438074,-15.13,11.60,8.18,250.13,-76.32,246.46
1778214146.6554906,438276,-3.23,3.97,14.78,-111.27,-32.28,-41.94
1778214146.8845875,438478,-2.05,7.39,4.49,-50.93,-7.27,-7.14
1778214147.0660293,438680,-2.42,6.78,5.92,9.36,-0.95,-32.03
1778214147.2432058,438882,-14.11,19.62,12.28,73.71,250.13,-250.14
1778214147.48478,439084,-0.91,2.80,10.82,124.63,-11.94,225.09
1778214147.6641665,439286,-19.62,13.57,9.00,88.88,-161.17,225.65
1778214147.843941,439488,-5.83,12.06,6.78,-12.68,-50.22,-32.98
1778214148.0839179,439690,-1.51,7.30,5.16,-15.20,-9.30,-16.99
1778214148.2632506,439892,-1.86,6.66,5.78,6.37,-0.90,-26.76
1778214148.5035453,440094,-6.18,14.56,7.24,-47.57,246.08,-250.14
1778214148.683934,440296,0.21,9.03,-2.08,-30.07,-95.31,144.74
1778214148.864561,440498,-19.62,17.19,2.13,94.98,-44.61,250.13
1778214149.1035419,440700,-3.17,6.81,4.39,-145.60,-38.64,-41.50
1778214149.2837281,440902,-2.06,7.45,4.55,-52.25,-5.56,-9.59
1778214149.4639068,441104,-2.10,6.54,5.57,8.19,0.02,-23.85
1778214149.7036922,441306,-8.45,12.68,12.95,-63.90,203.84,-250.14
1778214149.8835666,441508,0.36,6.75,4.66,92.50,-17.79,164.05
1778214150.0641868,441710,-19.62,14.17,11.14,161.92,-32.98,250.13
1778214150.3039036,441912,-4.66,7.37,8.42,-132.92,12.34,-36.34
1778214150.4836352,442114,-1.79,6.74,6.25,1.89,6.21,-12.34
1778214150.723616,442316,-1.93,6.64,5.92,10.21,4.05,-13.66
1778214150.9057157,442518,-5.03,10.28,5.32,-41.46,193.92,-250.14
1778214151.0839224,442720,0.63,3.11,-0.18,38.20,-111.15,100.29
1778214151.3255036,442922,-16.42,17.67,8.52,207.10,-44.69,250.13
1778214151.5177739,443124,-12.35,3.26,19.62,-220.15,-29.85,-68.73
1778214151.7450452,443326,-1.73,7.72,3.88,-61.27,2.34,-10.01
1778214151.9242182,443528,-1.50,5.73,6.67,14.94,11.14,-23.21
1778214152.103801,443730,-19.45,19.62,16.89,-151.81,130.40,-250.14
1778214152.2854128,443932,-0.47,8.83,2.84,90.28,-121.82,176.00
1778214152.5250473,444134,-19.62,9.28,15.22,250.13,-26.61,246.22
1778214152.704133,444336,-2.48,9.42,6.21,-23.35,-88.51,-41.34
1778214152.944623,444538,-1.85,7.36,4.96,-3.69,-5.45,-17.10
1778214153.1242723,444740,-1.61,7.24,4.86,42.82,22.95,-37.18
1778214153.3039868,444942,-16.00,16.31,3.73,-100.40,178.69,-250.14
1778214153.5438116,445144,-1.97,7.92,3.17,86.03,-120.29,236.21
1778214153.7249875,445346,-19.62,-4.03,4.37,215.44,13.46,226.47
1778214153.903531,445548,-2.76,9.23,9.07,-70.32,-19.30,-33.40
1778214154.1441805,445750,-2.13,7.64,4.69,-16.44,-3.47,-14.31
1778214154.3250632,445952,-1.80,6.98,4.98,26.35,13.38,-33.08
1778214154.5634665,446154,-13.94,16.28,6.09,-44.51,206.73,-250.14
1778214154.7436733,446356,-2.84,11.13,3.88,53.76,-136.39,234.28
1778214154.9231205,446558,-19.62,-2.64,5.68,178.34,37.33,237.53
1778214155.163458,446760,-1.89,10.24,1.60,-20.95,-56.16,-25.97
1778214155.3429248,446962,-1.84,7.42,4.87,-14.63,-2.44,-11.13
1778214155.5237963,447164,-2.03,7.08,5.03,-22.17,0.82,-16.86
1778214155.7651315,447366,-13.62,19.62,13.78,-143.49,205.25,-250.14
1778214155.9444978,447568,-3.75,11.88,-1.83,-94.71,-114.84,199.15
1778214156.124726,447770,-19.62,16.04,-5.02,164.92,116.03,250.13
1778214156.364534,447972,-3.71,13.49,14.19,-250.14,108.18,-121.69
1778214156.5440993,448174,-1.39,7.91,5.55,0.50,2.69,-13.57
1778214156.7880683,448376,-1.72,7.08,6.07,-15.26,-1.58,-10.04
1778214157.0239263,448578,-2.49,7.69,4.66,14.79,44.38,-29.88
1778214157.1437585,448780,-4.45,18.83,4.89,-250.14,41.73,-193.90
1778214157.4441085,448982,-7.39,11.95,-3.64,-67.52,-157.75,250.13
1778214157.567282,449184,-19.62,13.16,7.62,250.13,28.53,250.13
1778214157.805063,449386,-7.70,10.94,2.73,-196.18,74.11,-56.23
1778214157.9838858,449588,-1.62,7.59,4.96,-4.63,3.34,-14.47
1778214158.1700678,449790,-3.45,9.15,8.60,-8.67,10.60,-6.63
1778214158.3468146,449992,-3.87,8.82,2.89,-14.32,207.73,-250.14
1778214158.5839622,450194,-1.32,6.16,1.96,-21.55,-151.66,182.88
1778214158.7640693,450396,-14.03,16.16,5.70,181.82,-103.75,250.13
1778214159.0035768,450598,-7.75,-3.42,19.62,-222.98,159.60,-138.74
1778214159.1841087,450800,-1.94,8.02,3.96,-40.31,-3.62,-5.31
1778214159.3643398,451002,-2.45,6.65,4.40,-9.63,-4.89,-20.24
1778214159.605006,451204,-1.58,7.55,0.57,19.61,204.33,-250.14
1778214159.8433712,451406,0.01,4.34,0.43,3.47,-146.94,148.34
1778214159.9648068,451608,-13.28,18.07,5.83,189.70,-92.25,250.13
1778214160.203791,451810,-14.80,17.01,19.62,-250.14,140.48,-133.93
1778214160.3837676,452012,-1.67,7.52,5.60,0.27,-3.84,-8.48
1778214160.623968,452214,-2.22,6.69,5.79,-25.18,-0.63,-15.40
1778214160.803569,452416,-2.63,5.58,5.43,20.36,210.58,-250.14
1778214161.043536,452618,0.42,2.90,0.89,-10.30,-112.82,108.95
1778214161.2250626,452820,-10.97,17.26,5.47,200.25,-109.60,250.13
1778214161.403066,453022,-2.54,-0.24,15.25,-250.14,-86.55,-93.34
1778214161.5849628,453224,-1.32,7.72,5.20,-52.84,8.85,-7.10
1778214161.823537,453426,-1.79,6.27,5.87,1.34,4.73,-21.21
1778214162.0045595,453628,-4.76,12.78,5.85,-28.93,224.40,-250.14
1778214162.1835744,453830,0.57,1.84,1.02,36.89,-156.05,132.78
1778214162.4239793,454032,-16.67,17.03,5.37,161.41,-60.08,250.13
1778214162.6041977,454234,-2.41,5.98,6.14,-207.19,5.34,-66.42
1778214162.8441033,454436,-1.74,7.39,5.36,-48.97,4.20,-7.86
1778214163.0245836,454638,-1.65,6.30,6.87,-23.51,1.76,-28.51
1778214163.204104,454840,-5.75,12.32,2.29,-27.85,221.23,-250.14
1778214163.4455209,455042,1.15,3.56,0.13,59.57,-80.60,187.91
1778214163.6238894,455244,-17.02,13.47,12.55,23.42,-169.01,250.13
1778214163.8036325,455446,-5.16,-5.34,19.62,-250.14,32.90,-79.49
1778214164.0437362,455648,-2.11,7.59,4.48,-28.78,0.97,-13.58
1778214164.227115,455850,-1.53,6.62,5.47,24.34,-4.12,-30.43
1778214164.4039187,456052,-5.41,12.86,2.05,27.91,250.13,-250.14
1778214164.7045681,456254,1.11,1.64,-0.62,35.67,-159.01,193.94
1778214164.826724,456456,-18.39,15.65,5.44,166.35,-93.84,250.13
1778214165.0648618,456658,1.63,2.62,7.76,-250.14,-13.66,-86.45
1778214165.243933,456860,-1.98,8.61,2.76,-23.31,3.72,-14.71
1778214165.4245336,457062,-2.36,6.78,4.48,-18.06,0.77,-22.98
1778214165.6642962,457264,-2.29,9.59,0.74,-22.75,197.33,-250.14
1778214165.843464,457466,-1.29,5.77,1.46,-17.91,-142.73,207.85
1778214166.0243702,457668,-15.78,19.54,5.47,130.89,-79.18,250.13
1778214166.263693,457870,-8.95,5.91,17.17,-232.66,-28.79,-107.47
1778214166.5038886,458072,-1.60,7.98,3.12,-16.21,3.07,-13.67
1778214166.6849859,458274,-1.94,6.34,6.17,26.37,-6.03,-27.47
1778214166.864517,458476,-2.73,11.32,5.48,-32.40,192.15,-229.79
1778214167.0437882,458678,-0.30,6.44,0.09,-64.50,-104.81,166.11
1778214167.2839298,458880,-15.81,17.75,2.45,109.76,-82.02,250.13
1778214167.4636846,459082,-6.26,4.57,19.62,-206.01,139.65,-159.60
1778214167.645512,459284,-2.23,7.33,5.20,-6.14,-8.76,-6.15
1778214167.8842428,459486,-1.83,7.07,4.79,-28.40,3.92,-3.54
1778214168.062855,459688,-1.43,6.42,5.98,43.93,31.15,-40.32
1778214168.2451618,459890,-15.02,19.62,-13.47,-250.14,167.52,17.07
1778214168.484164,460092,-10.92,12.82,-9.72,-174.38,-134.96,250.13
1778214168.724191,460294,-18.23,12.96,0.92,183.18,52.69,248.69
1778214168.903528,460496,-1.59,7.42,7.39,-64.40,-5.80,-39.48
1778214169.0837505,460698,-1.37,7.97,4.35,-22.24,3.07,-14.84
1778214169.2637968,460900,-2.02,7.02,5.37,-17.15,3.40,-11.85
1778214169.5039146,461102,-2.28,8.45,5.19,-34.47,114.76,-130.02
1778214169.68441,461304,-2.96,14.69,1.11,-104.60,69.53,181.57
1778214169.863173,461506,-9.15,10.80,1.43,159.05,-147.01,250.13
1778214170.1047592,461708,7.29,19.62,-17.55,-250.14,0.65,-101.02
1778214170.2839155,461910,-2.14,8.31,4.44,6.36,-1.76,-2.32
1778214170.4629104,462112,-1.81,6.68,6.53,-33.57,9.93,-9.68
1778214170.7033403,462314,-2.08,6.75,4.83,79.81,54.31,-76.65
1778214170.8865337,462516,-17.02,19.62,19.55,102.29,22.24,-221.71
1778214171.1235082,462718,-7.09,7.60,9.22,94.67,-215.02,250.13
1778214171.303459,462920,5.29,4.23,-9.72,-250.14,21.06,-136.01
1778214171.4896026,463122,-1.31,7.12,5.79,-3.06,-18.33,-16.40
1778214171.7238576,463324,-1.77,7.03,5.26,-6.92,6.87,-18.79
1778214171.903328,463526,-1.61,6.11,1.36,96.44,71.49,-111.70
1778214172.0854418,463728,-0.74,19.57,3.23,-37.24,9.35,134.06
1778214172.3239899,463930,-6.64,7.98,8.62,61.37,-131.16,250.13
1778214172.5040786,464132,-19.62,-7.11,1.71,-153.63,-77.84,-141.95
1778214172.7433052,464334,-1.74,7.03,6.15,-22.53,-2.39,-4.02
1778214172.9300914,464536,-2.15,7.31,5.92,-3.08,0.49,-23.53
1778214173.1040177,464738,-0.58,6.74,0.76,58.93,131.56,-135.11
1778214173.3443096,464940,-1.43,17.87,2.34,-43.40,-185.15,151.36
1778214173.5245185,465142,-10.86,13.01,7.40,171.63,-162.92,250.13
1778214173.7034476,465344,2.11,18.00,-8.71,-250.14,148.58,-213.33
1778214173.9438133,465546,-2.00,8.48,1.10,25.79,-8.79,-19.53
1778214174.1836774,465748,-2.88,7.52,3.54,-36.56,-13.87,-25.29
1778214174.3029835,465950,-2.92,9.09,1.85,38.98,206.30,-250.14
1778214174.543322,466152,0.04,1.57,0.62,4.08,-154.05,163.21
1778214174.7234674,466354,-16.28,18.42,4.97,156.22,-102.11,250.13
1778214174.963299,466556,-12.24,10.20,19.62,-207.30,18.34,-95.89
1778214175.1460977,466758,-1.94,7.84,4.62,-38.82,3.27,-16.28
1778214175.3236716,466960,-2.17,6.84,4.98,7.59,-3.05,-30.08
1778214175.5653696,467162,-14.35,19.62,11.88,-78.93,236.35,-250.14
1778214175.7479188,467364,0.21,4.42,0.00,69.45,-133.71,155.34
1778214175.9236598,467566,-19.62,9.01,6.80,162.02,-3.21,250.13
1778214176.2234735,467768,-3.59,6.42,8.35,-114.19,5.27,-38.98
1778214176.344057,467970,-1.84,7.51,4.44,-36.76,-5.94,-12.03
1778214176.5250247,468172,-2.03,6.72,5.70,11.99,2.88,-25.53
1778214176.763552,468374,-10.35,16.89,2.63,-84.50,250.13,-250.14
1778214176.9448104,468576,0.38,4.35,0.68,60.87,-140.36,150.77
1778214177.1831107,468778,-19.62,12.82,6.83,163.63,-27.69,250.13
1778214177.3635523,468980,-4.30,13.36,0.46,-208.57,37.46,-63.50
1778214177.5462308,469182,-1.85,7.56,5.32,-33.47,-1.69,-9.34
1778214177.7850082,469384,-2.27,6.85,5.43,-1.50,2.83,-15.57
1778214177.9640758,469586,-2.96,11.80,0.69,11.46,241.73,-250.14
1778214178.1446908,469788,0.10,2.10,0.75,-15.10,-184.47,146.73
1778214178.3839176,469990,-16.34,17.58,4.25,132.73,-67.90,250.13
1778214178.5638208,470192,-6.40,4.76,11.11,-187.02,-2.22,-74.79
1778214178.803409,470394,-1.85,8.43,3.68,-32.94,2.31,-9.66
1778214179.043331,470596,-2.19,7.67,3.91,-15.83,-3.45,-7.58
1778214179.1643865,470798,-1.94,6.86,4.05,57.93,56.52,-62.16
1778214179.4031615,471000,-10.92,19.62,9.24,-203.95,103.63,-16.02
1778214179.5838115,471202,-13.22,13.92,-8.12,-145.73,-165.97,250.13
1778214179.7637155,471404,-15.38,2.78,1.51,245.81,122.66,219.41
1778214180.003473,471606,-3.42,9.38,4.29,30.54,-12.53,-44.25
1778214180.1832824,471808,-1.30,6.76,6.50,-36.87,10.49,-13.94
1778214180.3643932,472010,-2.45,6.99,5.10,-3.60,7.69,-13.71
1778214180.6045432,472212,-3.10,7.28,3.20,-52.44,90.44,-103.55
1778214180.842924,472414,-6.35,6.21,3.18,-232.53,204.08,235.89
1778214181.0232623,472616,-8.36,10.09,-2.36,40.31,-92.69,250.13
1778214181.2035341,472818,-19.62,-14.74,11.18,152.02,-36.53,63.05
1778214181.4432437,473020,-0.77,6.72,3.09,-17.37,-21.45,-9.55
1778214181.6239588,473222,-1.80,7.03,5.10,-34.87,-2.13,-12.47
1778214181.8633177,473424,-1.62,6.57,5.83,49.28,18.82,-43.29
1778214181.983419,473626,-18.80,17.89,12.17,-92.26,185.85,-250.14
1778214182.224299,473828,-2.43,10.06,3.00,90.51,-155.72,218.21
1778214182.4039164,474030,-19.62,-5.89,8.89,220.60,-60.53,218.58
1778214182.603886,474232,-3.15,9.53,-0.41,30.85,-80.08,-39.18
1778214182.8834262,474434,-1.67,7.21,5.27,-25.55,-1.26,-16.40
1778214183.005362,474636,-1.55,6.78,4.84,41.27,15.04,-39.57
1778214183.2459671,474838,-19.62,17.06,11.38,-74.18,209.80,-250.14
1778214183.4258876,475040,-0.64,7.05,2.31,128.78,-163.76,175.78
1778214183.6039948,475242,-19.62,2.65,12.78,169.79,-37.53,250.13
1778214183.9030747,475444,-2.92,11.66,0.58,-74.34,-44.97,-64.29
1778214184.0234976,475646,-2.02,7.31,5.30,-24.49,-0.87,-12.98
1778214184.2045574,475848,-1.11,6.47,5.76,-19.86,19.08,-24.05
1778214184.4428859,476050,-17.36,18.45,12.43,-103.23,222.64,-250.14
1778214184.6835325,476252,-0.76,8.88,1.65,80.15,-126.34,163.85
1778214184.864107,476454,-19.62,7.04,11.41,239.15,-29.62,250.13
1778214185.0429564,476656,-2.41,7.00,10.47,-93.18,-4.52,-41.91
1778214185.2238712,476858,-1.73,7.25,5.28,-32.36,-4.35,-9.98
1778214185.4627786,477060,-1.91,6.41,5.72,10.01,8.66,-34.50
1778214185.643894,477262,-19.62,19.61,11.28,-30.18,250.13,-250.14
1778214185.8245363,477464,-0.58,10.14,1.63,69.08,-123.49,221.03
1778214186.0633426,477666,-19.62,11.27,8.14,183.66,-70.09,250.13
1778214186.2428327,477868,-3.60,6.07,10.08,-54.98,5.26,-41.44
1778214186.423322,478070,-2.31,7.82,3.66,-7.19,-2.24,-15.20
1778214186.6636636,478272,-2.07,7.47,4.77,9.99,-4.08,-26.38
1778214186.8444228,478474,-5.85,13.03,2.84,-13.05,243.79,-250.14
1778214187.0844293,478676,0.19,4.37,-1.81,-44.92,-174.34,112.31
1778214187.2633665,478878,-17.42,18.30,4.20,170.93,-54.33,250.13
1778214187.4437325,479080,-9.85,12.48,7.52,-173.80,-69.35,-126.88
1778214187.7432306,479282,-1.11,7.87,2.38,-35.76,1.81,-6.66
1778214187.863789,479484,-1.60,6.73,5.86,-32.63,1.69,-16.78
1778214188.0437148,479686,-2.02,6.45,6.56,-25.09,188.54,-199.63
1778214188.2828841,479888,1.21,4.88,1.12,-18.82,-95.95,156.47
1778214188.4751716,480090,-10.39,15.09,6.34,183.05,-202.08,250.13
1778214188.6429732,480292,-10.63,-4.87,19.62,-250.14,153.31,-171.40
1778214188.883681,480494,-2.06,8.98,2.30,-19.66,-6.40,-10.60
1778214189.0637927,480696,-1.98,6.62,5.35,-29.21,2.50,-13.70
1778214189.303921,480898,-2.20,6.22,3.41,34.43,145.98,-172.28
1778214189.484367,481100,-0.41,9.33,2.20,-16.85,-131.37,146.12
1778214189.6625526,481302,-11.01,14.10,6.69,189.89,-178.47,250.13
1778214189.9043763,481504,0.35,2.25,14.84,-250.14,117.55,-153.80
1778214190.0846658,481706,-1.83,7.45,5.00,25.45,-4.37,-14.69
1778214190.2634542,481908,-1.79,7.16,4.79,-5.31,2.63,-14.12
1778214190.5033836,482110,-2.29,6.83,5.60,131.77,57.24,-87.11
1778214190.6831865,482312,-8.16,19.62,12.05,-30.77,-28.62,-115.85
1778214190.923234,482514,-9.76,10.55,0.23,41.63,-138.15,250.13
1778214191.1040406,482716,-19.62,2.50,7.03,13.69,222.56,104.54
1778214191.2831697,482918,-1.21,8.56,1.43,-29.36,-16.15,-25.76
1778214191.523494,483120,-1.86,6.79,6.38,-33.59,1.92,-8.27
1778214191.7040868,483322,-2.10,6.82,5.15,-7.42,5.32,-6.25
1778214191.883536,483524,-2.21,8.60,3.43,-37.03,118.74,-109.97
1778214192.123474,483726,-9.11,8.81,3.95,-250.14,144.93,249.15
1778214192.3032594,483928,-11.43,12.38,-10.01,-32.24,-41.89,250.13
1778214192.48298,484130,-18.96,7.25,4.45,250.13,124.85,176.23
1778214192.7353036,484332,-6.45,7.05,-1.54,-27.22,-21.27,-2.06
1778214192.9044244,484534,-1.87,7.74,4.57,7.39,0.43,-11.46
1778214193.145474,484736,-2.22,7.15,4.70,22.95,7.37,-20.59
1778214193.3253045,484938,-3.06,7.67,4.68,-2.53,126.43,-168.86
1778214193.5040803,485140,-1.53,12.56,0.91,-49.40,-17.44,139.15
1778214193.7436142,485342,-9.36,13.17,2.31,148.69,-111.89,250.13
1778214193.9236019,485544,8.47,19.62,-19.62,-250.14,48.75,-113.79
1778214194.1027882,485746,-1.20,7.40,4.14,0.37,-0.20,-5.79
1778214194.3439841,485948,-1.92,6.95,5.46,-9.08,-1.37,-14.77
1778214194.5263536,486150,-1.13,6.12,6.33,40.95,76.71,-79.63
1778214194.7636504,486352,-0.39,19.62,2.52,92.75,-32.29,47.06
1778214194.9432786,486554,-4.46,6.73,11.32,99.50,-238.59,242.60
1778214195.1247714,486756,19.62,-11.40,19.62,-126.29,-1.88,-181.92
1778214195.3630257,486958,-1.49,7.12,6.59,-11.93,-21.05,-9.00
1778214195.5441167,487160,-2.19,7.58,4.65,-17.16,-3.05,-13.24
1778214195.7235098,487362,-1.24,2.50,8.11,0.68,64.31,-69.67
1778214195.9627845,487564,3.10,13.61,7.92,-11.90,106.46,-250.14
1778214196.143641,487766,-7.63,9.84,-1.66,-4.76,-141.17,250.13
1778214196.3230858,487968,-19.62,-10.62,9.23,78.57,4.40,54.04
1778214196.5634346,488170,-2.45,5.72,4.46,-63.40,-24.03,-10.28
1778214196.7431343,488372,-2.21,7.26,4.86,-28.71,1.35,-12.55
1778214196.9835684,488574,-3.33,5.98,2.69,23.69,56.11,-70.89
1778214197.163633,488776,-19.62,19.62,19.62,38.72,-2.05,-225.75
1778214197.3433335,488978,-7.22,10.43,2.11,83.96,-131.82,250.13
1778214197.5830483,489180,-19.62,-5.07,2.81,-46.49,19.41,-80.27
1778214197.7633562,489382,-2.46,6.07,6.01,-45.41,2.50,-5.33
1778214197.9424827,489584,-2.41,6.97,5.72,-5.11,7.18,-16.79
1778214198.1835241,489786,-3.48,8.10,2.58,38.40,102.71,-92.50
1778214198.3633509,489988,-3.64,19.62,-2.53,48.27,-61.59,-65.11
1778214198.6030805,490190,-7.79,11.36,3.99,138.53,-138.08,250.13
1778214198.7846596,490392,0.64,16.31,-19.62,-238.25,67.98,-168.08
1778214198.9630306,490594,-1.03,7.09,6.29,2.72,-4.00,-13.43
1778214199.2045307,490796,-2.53,7.43,3.82,-21.33,-6.66,-24.73
1778214199.3835742,490998,-1.45,6.99,2.28,-12.78,150.11,-200.56
1778214199.624005,491200,-0.05,7.38,2.24,-13.30,-129.25,169.77
1778214199.8035514,491402,-11.14,15.53,7.44,179.02,-133.00,250.13
1778214199.9833407,491604,-9.26,5.79,16.47,-250.14,181.60,-167.11
1778214200.1643531,491806,-1.65,8.80,2.07,-10.63,-7.27,-14.04
1778214200.4030104,492008,-3.60,9.25,5.48,-38.98,10.76,-21.29
1778214200.583134,492210,-2.95,8.22,2.09,37.74,219.95,-250.14
1778214200.7635853,492412,0.23,3.00,0.23,9.69,-161.14,192.58
1778214201.0038977,492614,-13.91,17.89,6.10,168.22,-93.11,250.13
1778214201.1853223,492816,-8.97,10.99,19.62,-250.14,64.30,-123.78
1778214201.4230952,493018,-2.42,8.55,1.70,-33.64,8.22,-12.39
1778214201.603681,493220,-2.34,7.22,4.84,-9.31,3.83,-12.89
1778214201.7841923,493422,-1.66,10.19,2.02,12.97,212.78,-250.14
1778214202.0235689,493624,-0.60,4.18,0.51,-18.43,-178.50,184.66
1778214202.2024472,493826,-16.72,17.33,1.11,166.82,-87.47,250.13
1778214202.3834555,494028,-4.73,15.17,17.97,-247.08,162.56,-150.76
1778214202.623084,494230,-1.96,8.53,3.17,4.72,-13.73,-16.56
1778214202.8032787,494432,-2.26,7.56,4.61,-7.38,-1.72,-10.22
1778214203.0430098,494634,-1.31,7.22,4.79,76.00,46.73,-57.36
1778214203.2235746,494836,-0.91,11.04,4.42,-250.14,136.35,-250.14
1778214203.403476,495038,-11.66,12.50,-4.67,-101.51,-152.58,250.13
1778214203.6440725,495240,-15.08,5.85,1.50,250.13,142.99,120.31
1778214203.8318923,495442,-4.00,7.66,7.18,4.44,-37.89,-26.11
1778214204.0032253,495644,-2.46,7.53,5.07,-10.31,-12.97,-21.95
1778214204.2436798,495846,-2.06,6.72,5.21,0.03,-1.27,-10.31
1778214204.4237735,496048,-2.22,7.18,6.13,25.81,101.03,-112.07
1778214204.603956,496250,-5.37,6.12,2.20,-208.97,145.22,238.11
1778214204.844716,496452,-11.69,13.86,-11.01,-42.56,-53.53,250.13
1778214205.0236864,496654,-19.62,10.79,4.21,250.13,89.61,143.34
1778214205.2629578,496856,-2.69,7.49,-0.84,6.83,0.18,-16.27
1778214205.4434078,497058,-1.70,7.96,4.55,-15.42,-6.90,-10.61
1778214205.622512,497260,-2.06,6.62,5.61,6.43,7.40,-22.60
1778214205.8634574,497462,-7.51,13.02,6.55,-102.77,176.74,-250.14
1778214206.0440156,497664,-0.09,4.82,2.62,70.33,-46.85,156.95
1778214206.2247708,497866,-17.32,15.58,7.49,159.34,-69.27,250.13
1778214206.4641051,498068,-3.32,2.00,6.59,-216.79,-9.89,-88.18
1778214206.6429167,498270,-1.95,8.16,3.11,-56.97,3.60,-13.38
1778214206.8235757,498472,-2.17,6.56,5.80,-13.01,1.76,-21.73
1778214207.063077,498674,-0.07,3.64,8.46,21.58,202.22,-250.14
1778214207.2434478,498876,0.67,3.79,0.25,12.62,-131.04,188.81
1778214207.4831223,499078,-13.46,18.63,7.27,171.30,-144.35,250.13
1778214207.664307,499280,-11.28,17.95,17.38,-250.14,155.88,-129.19
1778214207.9031649,499482,-1.78,8.29,5.34,-24.33,12.82,-6.71
1778214208.0830564,499684,-1.94,7.10,4.47,-24.34,0.02,-15.44
1778214208.2644167,499886,-1.20,6.84,5.30,42.08,160.00,-208.28
1778214208.443062,500088,-0.98,7.22,2.25,-45.71,-154.24,148.30
1778214208.6833553,500290,-11.65,15.58,4.48,166.09,-114.69,250.13
1778214208.8656962,500492,4.20,-7.19,-10.45,-250.14,163.80,-176.26
1778214209.1030562,500694,-1.67,7.77,5.58,37.05,-11.61,-13.73
1778214209.2830052,500896,-1.94,6.91,6.61,-7.44,2.57,-15.47
1778214209.4632628,501098,1.82,5.76,4.31,11.89,144.57,-165.56
1778214209.704917,501300,-0.23,9.54,0.62,-32.41,-106.98,139.73
1778214209.8829794,501502,-9.45,12.66,4.94,185.22,-165.36,250.13
1778214210.0636108,501704,-3.38,9.39,0.84,-250.14,131.37,-177.48
1778214210.3031454,501906,-1.41,8.07,3.78,3.76,-5.04,-15.02
1778214210.4836013,502108,-1.97,6.43,5.43,-60.27,-9.21,-14.95
1778214210.6631446,502310,-1.19,7.47,1.52,-9.13,135.47,-154.08
1778214210.9029171,502512,-0.78,13.35,2.33,-1.71,-79.63,120.56
1778214211.0832753,502714,-8.68,11.65,7.09,179.53,-151.08,250.13
1778214211.323937,502916,2.89,19.62,-9.02,-250.14,198.56,-130.14
1778214211.5036085,503118,-1.34,7.75,6.19,22.82,-5.34,-19.50
1778214211.6832738,503320,-2.33,7.39,4.46,-12.14,2.91,-17.85
1778214211.9231715,503522,1.41,5.47,2.25,28.60,112.77,-154.75
1778214212.1033533,503724,3.28,4.26,-3.82,6.40,-59.21,184.11
1778214212.2830937,503926,-6.03,7.85,7.39,56.18,-242.88,221.31
1778214212.5231118,504128,2.65,19.62,-19.62,-250.14,-92.40,-237.87
1778214212.704551,504330,-1.94,8.57,3.83,49.07,-5.40,-13.98
1778214212.8858836,504532,-2.74,7.60,4.60,-4.90,-6.71,-17.92
1778214213.1229894,504734,-1.65,8.93,0.09,97.91,78.44,-140.50
1778214213.303638,504936,-1.15,14.55,3.29,-30.18,-102.14,89.79
1778214213.5447474,505138,-11.13,10.75,4.06,161.76,-158.64,250.13
1778214213.7248805,505340,6.15,18.68,-12.38,-250.14,74.21,-192.53
1778214213.9035594,505542,-2.08,7.95,5.06,-28.44,-17.21,-13.57
1778214214.1429517,505744,-1.71,7.05,5.17,-10.87,1.37,-10.41
1778214214.3235295,505946,-1.79,6.85,5.64,61.60,50.15,-64.62
1778214214.5030842,506148,-1.12,13.89,5.55,-42.55,146.38,-250.14
1778214214.7432187,506350,-6.31,6.26,3.84,45.85,-76.47,250.13
1778214214.9234002,506552,-19.62,-6.31,5.53,223.19,67.49,114.73
1778214215.1637278,506754,-2.48,6.96,6.23,-25.95,-30.12,-28.82
1778214215.34325,506956,-1.55,7.39,4.97,-9.26,-0.55,-9.21
1778214215.5233076,507158,-2.03,7.27,4.86,-6.92,-3.67,-11.87
1778214215.7636976,507360,-3.02,10.23,2.78,-41.82,211.84,-250.14
1778214215.9431605,507562,-1.26,4.71,-1.56,-129.50,-95.05,185.28
1778214216.123356,507764,-18.46,13.18,-3.78,170.40,-29.24,250.13
1778214216.363014,507966,2.24,5.97,3.97,-230.64,217.63,-81.10
1778214216.5447497,508168,-2.63,8.14,6.26,-111.02,-1.36,-8.80
1778214216.7223873,508370,-1.76,6.54,5.13,-9.89,6.82,-9.88
1778214216.9640892,508572,-2.38,7.20,5.33,15.32,42.92,-18.82
1778214217.1453402,508774,-8.75,14.72,4.27,-250.14,85.50,-218.63
1778214217.3828537,508976,-8.55,12.86,-4.84,-139.82,-189.39,240.83
1778214217.564217,509178,-19.39,17.15,2.79,187.17,67.69,250.13
1778214217.7433689,509380,-5.00,16.16,-8.40,-170.11,-58.44,-84.54
1778214217.9839733,509582,-1.63,7.33,5.43,8.09,5.31,-12.14
1778214218.1638782,509784,-2.41,6.83,4.85,-23.12,-6.36,-17.86
1778214218.3433342,509986,-0.29,5.81,3.66,-45.25,138.16,-160.05
1778214218.5831447,510188,-0.96,9.39,1.94,-39.78,-32.83,170.52
1778214218.7634227,510390,-8.58,12.22,7.21,236.42,-196.66,240.15
1778214218.9439578,510592,-4.29,4.05,6.24,-250.14,54.24,-125.74
1778214219.1832507,510794,-1.96,8.02,4.15,8.67,11.24,-5.11
1778214219.3635879,510996,-2.27,7.81,2.96,-13.21,-1.50,-18.66
1778214219.6025982,511198,-1.88,7.52,3.26,48.66,128.13,-162.98
1778214219.7838013,511400,-1.33,13.92,2.46,0.02,-191.00,127.53
1778214219.9632676,511602,-8.79,14.15,1.83,118.38,-122.72,250.13
1778214220.2636435,511804,-19.62,16.96,19.62,-250.14,222.16,-164.76
1778214220.3838718,512006,-1.47,7.46,5.51,13.12,-8.12,-15.22
1778214220.5629852,512208,-1.47,5.82,6.21,-17.47,-3.14,-21.49
1778214220.8028364,512410,-4.05,10.07,10.82,5.52,196.17,-250.14
1778214220.987794,512612,2.00,1.78,3.95,81.11,-7.63,207.37
1778214221.223358,512814,-17.82,18.48,11.32,167.42,-175.71,250.13
1778214221.4052618,513016,-5.68,8.24,12.06,-168.64,36.23,-60.91
1778214221.5830758,513218,-1.60,6.79,7.07,-91.92,-0.05,-10.94
1778214221.8231745,513420,-2.08,6.14,6.77,-3.14,0.00,-26.66
1778214222.0032527,513622,-6.95,14.33,4.23,-21.08,250.13,-250.14
1778214222.1849043,513824,-0.16,3.61,-0.81,24.33,-184.91,158.86
1778214222.423131,514026,-19.62,16.31,10.31,210.86,-48.18,250.13
1778214222.6028135,514228,-2.00,13.17,7.92,-80.98,5.67,-59.56
1778214222.7827427,514430,-1.68,7.50,5.01,-55.38,3.03,-10.57
1778214223.0228975,514632,-1.96,6.93,5.40,7.62,1.52,-26.51
1778214223.2030027,514834,-14.50,19.62,10.11,-117.18,226.78,-250.14
1778214223.446158,515036,-0.51,7.92,0.85,42.78,-130.05,162.05
1778214223.6230798,515238,-19.62,12.06,11.42,250.13,-67.77,250.13
1778214223.8029196,515440,-3.31,7.95,10.50,-25.54,-82.97,-54.84
1778214224.0432372,515642,-1.83,7.61,4.06,-35.44,-4.33,-9.11
1778214224.2251728,515844,-1.55,5.68,8.11,17.82,-4.12,-32.97
1778214224.4056292,516046,-18.24,15.59,12.39,-90.85,209.01,-250.14
1778214224.6429412,516248,-0.93,10.12,0.92,60.47,-112.21,190.30
1778214224.8233447,516450,-19.62,6.77,12.81,250.13,-109.79,250.13
1778214225.002936,516652,-2.45,7.43,10.63,-91.69,-3.13,-26.66
1778214225.2453392,516854,-1.86,7.31,6.15,-21.13,-11.73,-14.45
1778214225.4290235,517056,-2.10,6.77,4.38,6.10,-0.69,-33.10
1778214225.6632712,517258,-8.98,15.17,4.98,34.13,250.13,-250.14
1778214225.8439116,517460,1.68,2.20,1.23,68.49,-149.03,142.10
1778214226.0222354,517662,-16.96,12.83,12.89,228.74,-107.11,245.68
1778214226.2630386,517864,-4.89,8.04,10.55,-138.75,13.53,-55.55
1778214226.4427595,518066,-1.99,7.35,6.38,-15.42,10.79,-10.40
1778214226.6226683,518268,-2.13,6.80,5.90,-28.08,-4.92,-18.59
1778214226.9227164,518470,-0.61,5.44,8.52,84.83,169.92,-209.57
1778214227.045435,518672,0.45,3.34,-0.22,-132.63,-176.56,103.35
1778214227.2828715,518874,-15.78,15.58,-0.80,73.17,-84.51,250.13
1778214227.4634917,519076,-2.09,16.46,5.27,-250.14,152.63,-156.20
1778214227.6430483,519278,-1.18,9.49,5.89,-95.79,-7.95,-6.64
1778214227.8828704,519480,-1.84,6.75,5.60,-31.58,3.23,-2.06
1778214228.0628965,519682,-1.94,5.60,7.08,5.43,35.15,-22.18
1778214228.363535,519884,-4.59,16.24,1.62,-250.14,78.38,-206.10
1778214228.4828491,520086,-7.98,11.08,-4.15,-113.08,-154.05,250.13
1778214228.663074,520288,-19.62,10.83,3.24,246.53,35.98,247.15
1778214228.8431811,520490,-1.92,13.91,3.47,28.89,-40.75,-37.38
1778214229.0829492,520692,-1.81,7.73,3.67,-29.89,-1.64,-11.76
1778214229.2633708,520894,-2.17,6.59,5.76,-6.88,6.55,-18.51
1778214229.503544,521096,-3.71,8.28,7.05,-136.89,151.12,-214.53
1778214229.6840668,521298,-2.52,2.09,3.10,-105.18,-19.03,188.52
1778214229.864231,521500,-13.11,15.68,-0.07,140.17,-61.73,250.13
1778214230.1029973,521702,-10.69,4.92,15.58,-250.14,222.74,-129.20
1778214230.2883594,521904,-2.10,8.03,3.00,32.93,-11.32,-10.57
1778214230.462841,522106,-2.54,7.96,3.84,-23.68,-6.95,-22.68
1778214230.7026672,522308,-1.85,7.91,3.19,-5.55,114.82,-138.42
1778214230.8845422,522510,-1.25,14.40,3.48,-35.55,-49.76,122.08
1778214231.0633461,522712,-9.68,14.09,2.17,93.41,-116.72,250.13
1778214231.3040233,522914,10.73,18.74,-3.91,-250.14,109.06,-200.57
1778214231.4862878,523116,-1.66,7.52,5.97,53.71,2.61,-21.22
1778214231.7237227,523318,-2.45,7.31,4.63,-29.61,-1.57,-13.31
1778214231.9044755,523520,-2.22,7.59,2.73,8.83,134.89,-155.70
1778214232.0826643,523722,-0.34,11.30,0.06,-12.44,-102.88,134.21
1778214232.322954,523924,-10.05,11.75,7.59,206.48,-146.89,250.13
1778214232.506126,524126,6.47,19.62,-19.62,-250.14,33.79,-87.73
1778214232.6829758,524328,-1.64,7.40,5.96,40.37,6.53,-10.23
1778214232.922778,524530,-2.10,7.32,5.04,-29.74,-0.79,-16.40
1778214233.1046815,524732,-0.96,8.47,2.31,9.22,127.86,-133.15
1778214233.342628,524934,-1.11,15.07,5.83,-18.66,-84.10,137.77
1778214233.5237608,525136,-7.92,12.91,4.65,178.95,-124.93,250.13
1778214233.7027996,525338,-5.83,19.62,8.21,-250.14,229.47,-128.42
1778214233.9436102,525540,-1.47,6.57,6.22,33.43,-21.89,-9.50
1778214234.1230233,525742,-2.49,8.22,4.44,-18.42,1.47,-27.17
1778214234.3043063,525944,-7.07,8.83,14.28,55.55,120.30,-148.30
1778214234.5428164,526146,-1.18,14.88,2.87,9.90,-100.32,132.45
1778214234.9040868,526348,-8.22,12.74,7.60,190.41,-199.93,250.13
1778214234.964929,526550,2.13,19.62,-4.06,-105.02,99.28,-128.95
1778214235.2041206,526752,-2.29,7.98,5.49,29.53,-4.61,-10.88
1778214235.3241334,526954,-1.65,6.63,5.42,-27.56,2.15,-18.76
1778214235.563068,527156,-0.90,6.07,3.38,66.02,110.55,-120.70
1778214235.7425005,527358,-2.58,19.62,9.08,-10.79,-46.21,100.82
1778214235.9259365,527560,-8.24,9.79,4.75,62.25,-77.84,250.13
1778214236.162563,527762,4.55,15.49,19.62,27.79,-82.47,-229.97
1778214236.3427963,527964,-1.49,6.69,4.78,22.86,6.16,-8.37
1778214236.5252552,528166,-2.05,7.06,4.70,-6.50,-0.63,-17.96
1778214236.7627623,528368,-0.95,6.79,3.64,54.67,102.69,-124.37
1778214236.94328,528570,-0.01,19.62,5.39,19.89,-84.63,18.67
1778214237.1244156,528772,-8.68,10.49,2.66,84.28,-154.98,250.13
1778214237.3630219,528974,9.64,8.16,7.56,-239.44,87.96,-152.82
1778214237.5426724,529176,-1.20,6.95,5.78,-12.66,0.60,-4.18
1778214237.7829578,529378,-2.31,7.53,4.53,-23.43,-4.84,-15.66
1778214237.9656558,529580,-0.21,4.10,1.89,55.96,68.63,-90.44
1778214238.1427684,529782,-10.46,19.62,16.36,-39.79,-3.55,-172.12
1778214238.382912,529984,-8.20,9.67,3.85,95.88,-136.15,250.13
1778214238.5624197,530186,-16.89,-8.97,19.62,-113.54,-31.47,-153.62
1778214238.743119,530388,-3.11,7.84,3.95,-69.38,-9.95,-8.66
1778214238.9830277,530590,-1.82,6.99,5.74,-23.06,-0.95,-11.18
1778214239.1630967,530792,-2.38,6.98,4.51,62.98,26.98,-42.12
1778214239.4029658,530994,-3.77,14.13,5.46,-244.13,134.35,-250.14
1778214239.583592,531196,-8.90,10.45,-0.76,-34.15,-140.67,250.13
1778214239.7628787,531398,-19.62,10.39,5.90,242.18,250.13,170.66
1778214240.002653,531600,-1.95,10.01,3.35,-4.08,-12.05,-22.50
1778214240.183026,531802,-1.79,7.26,4.16,-48.61,-22.28,-15.54
1778214240.3629608,532004,-1.89,6.75,5.61,-4.50,-0.76,-18.27
1778214240.6044993,532206,-4.48,10.92,6.86,-165.26,164.78,-209.18
1778214240.8424401,532408,-4.98,6.13,2.73,-167.50,-7.10,179.35
1778214240.9624605,532610,-12.57,14.79,-4.51,100.89,20.70,250.13
1778214241.203268,532812,-12.61,0.89,5.23,-76.18,84.13,-140.09
1778214241.382423,533014,-3.77,7.62,7.47,-70.63,-6.72,-4.08
1778214241.6259208,533216,-1.93,6.70,6.54,-28.93,2.94,-10.76
1778214241.8059032,533418,-1.89,6.81,5.38,22.36,31.80,-35.60
1778214241.9848237,533620,-11.28,16.22,2.75,-250.14,70.74,-250.14
1778214242.2226636,533822,-6.11,12.08,-0.20,-18.44,-164.92,236.30
1778214242.40347,534024,-19.62,8.08,8.35,250.13,41.05,237.47
1778214242.5829835,534226,2.14,3.02,17.55,-18.85,-16.90,-110.37
1778214242.8229802,534428,-1.87,7.05,6.07,-14.95,1.05,-13.51
1778214243.0084383,534630,-2.16,6.52,5.89,-2.93,2.50,-17.51
1778214243.1824338,534832,-10.09,14.99,9.24,-26.79,189.53,-250.14
1778214243.4238682,535034,-0.38,4.55,13.26,193.20,-4.02,250.13
1778214243.6040695,535236,-19.62,4.62,9.32,41.02,-218.07,240.48
1778214243.9046721,535438,-2.15,7.20,10.91,7.70,8.59,-28.02
1778214244.0243185,535640,-1.78,7.41,4.43,-4.96,-10.42,-17.72
1778214244.2026713,535842,-2.17,6.41,3.59,7.75,-6.85,-26.32
1778214244.4429855,536044,-6.81,12.33,2.45,-32.00,250.13,-250.14
1778214244.6225731,536246,1.04,4.21,-0.69,25.27,-153.54,138.09
1778214244.8026793,536448,-19.62,17.10,5.38,154.40,-63.76,250.13
1778214245.0436165,536650,-18.03,19.62,19.62,-230.14,46.32,-122.35
1778214245.2225122,536852,-1.84,7.15,4.24,-66.69,3.35,-9.50
1778214245.463922,537054,-2.01,6.45,5.73,3.73,1.05,-27.50
1778214245.6427202,537256,-15.07,19.62,12.31,-150.51,223.01,-250.14
1778214245.884902,537458,0.58,3.31,-0.57,111.40,-92.92,238.05
1778214246.0631151,537660,-19.62,18.15,7.16,121.27,-169.95,250.13
1778214246.2434518,537862,-2.36,6.37,7.07,-75.60,9.06,-36.58
1778214246.4249675,538064,-1.95,7.60,4.09,-23.18,-13.27,-15.10
1778214246.663337,538266,-1.15,6.05,6.91,12.94,2.05,-27.69
1778214246.8476002,538468,-19.16,18.28,11.69,-84.55,214.89,-250.14
1778214247.0231762,538670,-1.28,9.44,-0.09,54.67,-135.18,175.75
1778214247.2628114,538872,-19.62,5.66,8.09,250.13,-67.47,250.13
1778214247.4435542,539074,-4.06,2.61,12.57,-82.50,-14.68,-48.47
1778214247.6825566,539276,-1.57,7.06,6.74,-32.00,-4.52,-15.68
1778214247.8627138,539478,-2.06,6.75,5.62,29.50,4.04,-35.66
1778214248.042346,539680,-19.29,18.19,10.42,-73.16,218.39,-250.14
1778214248.2834895,539882,-2.11,8.62,1.35,85.84,-168.47,221.22
1778214248.462808,540084,-19.62,-0.62,7.68,250.13,30.66,242.46
1778214248.643462,540286,-3.74,8.50,6.09,-81.91,-0.12,-37.59
1778214248.883772,540488,-1.70,7.10,5.39,-22.21,-0.77,-15.05
1778214249.063354,540690,-1.37,6.59,5.52,19.75,11.27,-35.51
1778214249.3026624,540892,-17.57,17.49,10.09,-120.92,193.59,-250.14
1778214249.4826834,541094,-2.67,9.53,5.63,87.53,-135.66,238.87
1778214249.6619642,541296,-19.62,-7.08,13.65,145.63,-0.29,179.98
1778214249.9019275,541498,-1.63,9.19,5.57,-69.64,-4.98,-26.56
1778214250.142547,541700,-2.09,7.40,4.94,-30.09,2.50,-11.68
1778214250.264333,541902,-1.90,6.60,5.99,30.40,10.19,-39.40
1778214250.5032163,542104,-18.47,17.47,7.24,-38.85,223.87,-250.14
1778214250.6827865,542306,-2.00,10.24,2.09,65.50,-137.53,221.40
1778214250.8669338,542508,-19.32,3.12,4.92,239.82,33.53,233.30
1778214251.102968,542710,-2.61,7.60,10.87,-38.59,-44.77,-32.47
1778214251.2826316,542912,-1.77,7.53,5.49,-14.81,-1.47,-13.79
1778214251.5230353,543114,-1.90,7.13,5.25,-19.69,0.34,-9.38
1778214251.7035866,543316,-4.64,14.16,7.12,-66.70,209.37,-250.14
1778214251.8824825,543518,-0.92,7.88,-0.51,-64.11,-80.76,139.39
1778214252.122537,543720,-19.62,15.20,-1.50,112.13,-20.67,250.13
1778214252.3045127,543922,-6.12,0.39,19.62,-225.12,151.92,-128.28
1778214252.4832675,544124,-1.73,7.90,4.78,-22.95,-25.53,-22.73
1778214252.7227867,544326,-2.61,7.02,5.29,-14.22,3.35,-1.12
1778214252.9053764,544528,-2.14,7.36,4.47,23.98,68.91,-49.12
